timestamp,accelX,accelY,accelZ,gyroX,gyroY,gyroZ,magX,magY,magZ,roll,pitch,yaw,rollLevel,pitchLevel,yawLevel,rollPid,pitchPid,yawPid,output0,output1,output2,output3
5147,1731,-1388,15494,-18.09,85.66,-34.85,454.26,-51.01,1284.32,-109.65,-87.94,-214.07,-5670.21,-5664.14,285.29,-668.37,-661.82,-59.99,1111,1111,1111,1111
5153,1753,-1407,15505,-19.15,85.93,-36.98,454.26,-51.01,1284.32,-109.76,-88.99,-214.14,-5670.21,-5664.14,285.29,-666.57,-662.52,-60.35,1111,1111,1111,1111
5160,1767,-1406,15484,-19.95,90.19,-32.99,454.26,-49.39,1284.32,-110.18,-89.78,-214.28,-5670.21,-5664.14,285.29,-664.85,-664.43,-60.73,1111,1111,1111,1111
5166,1738,-1392,15451,-17.56,86.19,-33.25,454.26,-49.39,1284.32,-110.44,-90.16,-214.42,-5670.21,-5664.14,285.29,-665.49,-666.44,-60.89,1111,1111,1111,1111
5173,1773,-1432,15547,-19.42,86.99,-35.12,454.26,-49.39,1284.32,-110.80,-90.96,-214.60,-5670.21,-5664.14,285.29,-665.07,-664.27,-61.01,1111,1111,1111,1111
5179,1710,-1362,15444,-22.35,88.85,-33.25,454.26,-49.39,1284.32,-109.99,-90.03,-214.95,-5670.21,-5664.14,285.29,-672.64,-675.03,-62.36,1111,1111,1111,1111
5185,1772,-1365,15376,-17.03,90.19,-36.45,454.26,-49.39,1284.32,-110.62,-89.85,-215.25,-5670.21,-5664.14,285.29,-663.59,-669.95,-61.73,1111,1111,1111,1111
5191,1726,-1411,15445,-22.08,87.26,-36.71,454.26,-49.39,1284.32,-110.28,-90.81,-215.35,-5670.21,-5664.14,285.29,-669.35,-662.63,-60.74,1111,1111,1111,1111
5197,1749,-1388,15456,-18.62,89.65,-35.12,454.26,-49.39,1284.32,-110.66,-90.40,-215.67,-5670.21,-5664.14,285.29,-664.99,-671.19,-61.95,1111,1111,1111,1111
5203,1751,-1370,15465,-20.48,85.93,-33.52,454.26,-49.39,1284.32,-110.89,-89.79,-215.96,-5670.21,-5664.14,285.29,-665.66,-672.76,-61.97,1111,1111,1111,1111
5211,1750,-1360,15462,-19.69,82.74,-33.79,454.26,-49.39,1284.32,-111.14,-89.18,-216.23,-5670.21,-5664.14,285.29,-665.63,-672.53,-61.74,1111,1111,1111,1111
5216,1753,-1364,15535,-19.42,85.66,-34.32,454.26,-49.39,1284.32,-111.25,-88.87,-216.39,-5670.21,-5664.14,285.29,-666.36,-671.08,-61.22,1111,1111,1111,1111
5223,1703,-1352,15469,-20.22,87.79,-36.45,454.26,-49.39,1284.32,-109.64,-88.61,-216.57,-5670.21,-5664.14,285.29,-676.45,-670.54,-61.27,1111,1111,1111,1111
5229,1738,-1403,15523,-18.36,85.13,-33.25,454.26,-49.39,1284.32,-109.68,-89.58,-216.61,-5670.21,-5664.14,285.29,-667.01,-662.69,-60.50,1111,1111,1111,1111
5235,1747,-1394,15491,-19.15,85.40,-36.45,454.26,-49.39,1284.32,-110.12,-90.13,-216.76,-5670.21,-5664.14,285.29,-664.66,-665.71,-61.09,1111,1111,1111,1111
5241,1746,-1402,15433,-19.15,86.19,-34.32,454.26,-49.39,1284.32,-110.48,-90.65,-216.90,-5670.21,-5664.14,285.29,-664.86,-665.49,-61.16,1111,1111,1111,1111
5248,1781,-1381,15395,-21.02,87.79,-33.52,454.26,-49.39,1284.32,-111.12,-90.55,-217.17,-5670.21,-5664.14,285.29,-663.44,-669.41,-61.84,1111,1111,1111,1111
5254,1740,-1405,15384,-16.23,86.99,-34.85,454.26,-49.39,1284.32,-111.22,-91.13,-217.32,-5670.21,-5664.14,285.29,-666.48,-665.12,-61.24,1111,1111,1111,1111
5261,1769,-1375,15439,-19.69,90.19,-36.71,454.26,-49.39,1284.32,-111.55,-90.45,-217.69,-5670.21,-5664.14,285.29,-665.17,-672.74,-62.47,1111,1111,1111,1111
5267,1766,-1363,15451,-19.42,85.93,-33.79,454.26,-49.39,1284.32,-111.77,-89.81,-217.97,-5670.21,-5664.14,285.29,-665.52,-673.08,-62.21,1111,1111,1111,1111
5273,1773,-1386,15414,-18.62,87.26,-33.79,454.26,-49.39,1284.32,-112.26,-90.18,-218.14,-5670.21,-5664.14,285.29,-664.20,-666.79,-61.37,1111,1111,1111,1111
5279,1725,-1401,15444,-20.48,88.32,-32.72,454.26,-49.39,1284.32,-111.03,-90.74,-218.25,-5670.21,-5664.14,285.29,-675.03,-665.15,-61.14,1111,1111,1111,1111
5285,1788,-1374,15406,-18.36,85.40,-32.72,454.26,-49.39,1284.32,-111.66,-90.46,-218.53,-5670.21,-5664.14,285.29,-663.48,-670.43,-62.05,1111,1111,1111,1111
5292,1768,-1380,15442,-18.09,89.39,-32.72,454.26,-49.39,1284.32,-112.01,-90.22,-218.74,-5670.21,-5664.14,285.29,-664.66,-670.49,-61.90,1111,1111,1111,1111
5299,1786,-1366,15448,-19.42,85.93,-33.79,454.26,-49.39,1284.32,-112.51,-89.81,-219.02,-5670.21,-5664.14,285.29,-664.08,-671.27,-62.08,1111,1111,1111,1111
5305,1736,-1371,15442,-19.15,87.26,-35.12,454.26,-49.39,1284.32,-111.39,-89.58,-219.17,-5670.21,-5664.14,284.00,-673.90,-670.34,-61.34,1111,1111,1111,1111
5311,1751,-1373,15462,-19.95,87.79,-36.18,454.26,-49.39,1284.32,-111.60,-89.71,-219.30,-5670.21,-5664.14,284.00,-665.84,-668.21,-61.09,1111,1111,1111,1111
5317,1731,-1380,15467,-19.42,88.06,-35.12,454.26,-49.39,1284.32,-110.83,-89.99,-219.35,-5670.21,-5664.14,284.00,-672.14,-667.03,-60.73,1111,1111,1111,1111
5323,1794,-1428,15457,-20.48,85.93,-35.65,454.26,-51.01,1284.32,-111.25,-90.86,-219.47,-5670.21,-5664.14,284.00,-664.67,-663.79,-61.14,1111,1111,1111,1111
5329,1759,-1366,15508,-20.48,86.99,-33.25,454.26,-51.01,1284.32,-111.37,-90.17,-219.69,-5670.21,-5664.14,284.00,-666.25,-673.38,-61.88,1111,1111,1111,1111
5336,1703,-1387,15459,-18.09,88.32,-34.85,454.26,-51.01,1284.32,-109.80,-90.66,-219.74,-5670.21,-5664.14,284.00,-676.21,-666.02,-60.74,1111,1111,1111,1111
5342,1729,-1383,15443,-18.89,91.52,-36.18,454.26,-51.01,1284.32,-110.09,-90.75,-219.83,-5670.21,-5664.14,284.00,-665.32,-668.26,-61.04,1111,1111,1111,1111
5349,1743,-1426,15460,-21.28,88.85,-32.99,454.26,-51.01,1284.32,-110.23,-91.75,-219.89,-5670.21,-5664.14,284.00,-666.40,-662.91,-60.82,1111,1111,1111,1111
5355,1707,-1377,15459,-19.69,85.93,-32.99,454.26,-51.01,1284.32,-109.48,-90.82,-220.16,-5670.21,-5664.14,285.29,-671.97,-674.61,-62.27,1111,1111,1111,1111
5361,1770,-1397,15516,-17.29,86.19,-36.18,454.26,-51.01,1284.32,-110.13,-91.00,-220.34,-5670.21,-5664.14,285.29,-663.53,-667.71,-61.71,1111,1111,1111,1111
5367,1698,-1345,15477,-19.42,87.52,-34.58,454.26,-51.01,1284.32,-109.29,-90.03,-220.60,-5670.21,-5664.14,285.29,-672.71,-675.22,-62.41,1111,1111,1111,1111
5374,1720,-1419,15459,-19.95,84.07,-34.85,454.26,-51.01,1284.32,-109.23,-91.22,-220.62,-5670.21,-5664.14,285.29,-667.68,-661.98,-60.83,1111,1111,1111,1111
5380,1798,-1369,15546,-18.62,88.85,-32.99,454.26,-51.01,1284.32,-109.79,-90.91,-220.85,-5670.21,-5664.14,285.29,-663.68,-670.77,-62.21,1111,1111,1111,1111
5387,1751,-1357,15463,-18.89,84.60,-34.32,454.26,-51.01,1284.32,-110.23,-90.32,-221.09,-5670.21,-5664.14,285.29,-664.63,-672.32,-62.14,1111,1111,1111,1111
5392,1721,-1387,15506,-18.09,84.60,-32.72,454.26,-51.01,1284.32,-109.91,-90.76,-221.01,-5670.21,-5664.14,285.29,-669.30,-665.95,-60.22,1111,1111,1111,1111
5399,1757,-1319,15390,-18.36,86.19,-37.78,454.26,-51.01,1284.32,-110.23,-89.97,-221.31,-5670.21,-5664.14,285.29,-665.26,-673.68,-62.62,1111,1111,1111,1111
5404,1742,-1361,15424,-19.95,85.66,-35.91,454.26,-51.01,1284.32,-110.67,-89.99,-221.39,-5670.21,-5664.14,285.29,-664.26,-668.78,-61.32,1111,1111,1111,1111
5411,1735,-1418,15414,-20.22,86.99,-35.38,454.26,-51.01,1284.32,-110.53,-91.24,-221.42,-5670.21,-5664.14,285.29,-667.93,-661.82,-60.98,1111,1111,1111,1111
5417,1739,-1384,15498,-19.15,84.33,-35.12,454.26,-51.01,1284.32,-110.65,-90.77,-221.57,-5670.21,-5664.14,285.29,-666.42,-671.81,-61.76,1111,1111,1111,1111
5424,1742,-1398,15539,-15.96,85.66,-35.12,454.26,-51.01,1284.32,-110.71,-91.12,-221.58,-5670.21,-5664.14,285.29,-666.77,-666.82,-60.88,1111,1111,1111,1111
5430,1749,-1382,15501,-21.02,85.13,-33.79,454.26,-51.01,1284.32,-110.97,-90.76,-221.72,-5670.21,-5664.14,285.29,-665.42,-671.21,-61.76,1111,1111,1111,1111
5437,1772,-1355,15450,-17.82,90.45,-33.52,454.26,-49.39,1284.32,-111.35,-90.06,-222.02,-5670.21,-5664.14,285.29,-664.91,-672.81,-62.57,1111,1111,1111,1111
5442,1791,-1402,15450,-18.09,87.79,-33.52,454.26,-49.39,1284.32,-111.82,-90.54,-222.15,-5670.21,-5664.14,285.29,-663.92,-665.71,-61.72,1111,1111,1111,1111
5449,1771,-1398,15460,-17.56,84.33,-35.38,454.26,-51.01,1284.32,-112.22,-91.12,-222.22,-5670.21,-5664.14,285.29,-664.72,-665.48,-61.33,1111,1111,1111,1111
5454,1775,-1406,15558,-18.62,85.13,-35.12,454.26,-51.01,1284.32,-112.41,-91.30,-222.30,-5670.21,-5664.14,285.29,-665.68,-667.55,-61.42,1111,1111,1111,1111
5462,1793,-1376,15458,-20.48,89.39,-31.39,454.26,-49.39,1284.32,-112.83,-90.66,-222.62,-5670.21,-5665.44,285.29,-664.64,-672.37,-62.64,1111,1111,1111,1111
5468,1779,-1361,15446,-19.69,86.99,-31.39,454.26,-49.39,1284.32,-112.97,-89.98,-222.86,-5670.21,-5665.44,285.29,-665.99,-673.53,-62.54,1111,1111,1111,1111
5475,1774,-1409,15480,-19.42,88.85,-32.99,454.26,-49.39,1284.32,-112.84,-91.00,-222.90,-5670.21,-5665.44,285.29,-667.63,-663.15,-61.22,1111,1111,1111,1111
5480,1744,-1406,15466,-19.42,86.46,-35.91,454.26,-49.39,1284.32,-111.78,-91.32,-223.02,-5670.21,-5665.44,285.29,-673.85,-666.83,-61.77,1111,1111,1111,1111
5487,1783,-1356,15434,-19.95,84.60,-33.79,454.26,-49.39,1284.32,-112.12,-90.52,-223.35,-5670.21,-5665.44,285.29,-665.07,-673.51,-62.91,1111,1111,1111,1111
5493,1742,-1395,15542,-20.75,86.99,-32.19,454.26,-49.39,1284.32,-111.13,-90.63,-223.40,-5670.21,-5665.44,285.29,-673.65,-668.25,-61.39,1111,1111,1111,1111
5499,1752,-1404,15404,-15.96,86.99,-35.65,454.26,-49.39,1284.32,-111.44,-91.33,-223.51,-5670.21,-5665.44,285.29,-665.34,-664.99,-61.65,1111,1111,1111,1111
5506,1809,-1376,15456,-19.95,84.86,-33.79,454.26,-49.39,1284.32,-111.99,-91.03,-223.75,-5670.21,-5665.44,285.29,-663.39,-670.82,-62.69,1111,1111,1111,1111
5513,1724,-1345,15357,-18.36,89.92,-32.46,455.84,-49.39,1284.32,-111.21,-89.88,-224.06,-5670.21,-5664.14,285.29,-671.40,-675.27,-62.83,1111,1111,1111,1111
5518,1793,-1362,15440,-18.62,86.73,-32.99,455.84,-49.39,1284.32,-111.79,-89.89,-224.21,-5670.21,-5664.14,285.29,-663.25,-668.85,-62.12,1111,1111,1111,1111
5525,1734,-1396,15398,-19.95,86.73,-36.18,455.84,-49.39,1284.32,-111.36,-91.01,-224.21,-5670.21,-5664.14,285.29,-669.55,-662.33,-61.09,1111,1111,1111,1111
5530,1766,-1398,15469,-21.55,87.52,-35.65,455.84,-49.39,1284.32,-111.76,-91.20,-224.34,-5670.21,-5664.14,285.29,-664.38,-667.49,-62.00,1111,1111,1111,1111
5537,1743,-1400,15498,-19.15,83.53,-34.85,455.84,-49.39,1284.32,-111.22,-91.19,-224.42,-5670.21,-5664.14,285.29,-670.10,-668.81,-61.63,1111,1111,1111,1111
5543,1759,-1358,15462,-19.15,85.66,-32.19,455.84,-49.39,1284.32,-111.37,-90.42,-224.66,-5670.21,-5664.14,285.29,-666.10,-673.85,-62.76,1111,1111,1111,1111
5550,1735,-1396,15428,-17.29,85.93,-34.58,457.41,-49.39,1284.32,-111.12,-91.34,-224.62,-5670.21,-5664.14,285.29,-668.49,-663.58,-60.98,1111,1111,1111,1111
5556,1754,-1375,15467,-21.28,88.32,-34.58,457.41,-49.39,1284.32,-111.33,-90.78,-224.82,-5670.21,-5664.14,285.29,-665.72,-672.47,-62.51,1111,1111,1111,1111
5563,1765,-1357,15407,-18.62,85.40,-33.25,457.41,-49.39,1284.32,-111.82,-90.26,-225.04,-5670.21,-5664.14,285.29,-664.36,-671.73,-62.42,1111,1111,1111,1111
5569,1785,-1372,15434,-17.29,88.85,-33.79,457.41,-49.39,1284.32,-112.33,-90.33,-225.16,-5670.21,-5664.14,285.29,-663.60,-668.36,-62.04,1111,1111,1111,1111
5575,1762,-1365,15510,-17.56,88.32,-34.58,455.84,-49.39,1284.32,-112.21,-89.64,-225.30,-5670.21,-5664.14,285.29,-667.63,-672.83,-62.08,1111,1111,1111,1111
5581,1774,-1387,15480,-18.62,86.99,-37.24,455.84,-49.39,1284.32,-112.44,-90.30,-225.34,-5670.21,-5664.14,285.29,-665.43,-664.59,-61.49,1111,1111,1111,1111
5587,1766,-1342,15440,-18.09,87.79,-36.18,455.84,-49.39,1284.32,-112.49,-89.41,-225.58,-5670.21,-5664.14,285.29,-666.67,-674.09,-62.72,1111,1111,1111,1111
5594,1784,-1416,15411,-21.02,86.73,-32.46,455.84,-49.39,1284.32,-112.59,-90.41,-225.62,-5670.21,-5664.14,285.29,-666.24,-662.41,-61.55,1111,1111,1111,1111
5601,1759,-1389,15443,-19.95,88.85,-35.38,455.84,-49.39,1284.32,-112.50,-90.99,-225.62,-5670.21,-5664.14,285.29,-667.48,-665.45,-61.31,1111,1111,1111,1111
5606,1720,-1361,15413,-22.88,88.85,-35.91,455.84,-49.39,1284.32,-111.31,-90.31,-225.84,-5670.21,-5664.14,285.29,-674.75,-673.30,-62.77,1111,1111,1111,1111
5613,1720,-1402,15459,-20.75,89.12,-38.31,455.84,-49.39,1284.32,-110.37,-91.42,-225.83,-5670.21,-5665.44,285.29,-672.31,-662.81,-61.26,1111,1111,1111,1111
5619,1740,-1409,15435,-17.03,87.26,-35.91,455.84,-49.39,1284.32,-110.66,-91.87,-225.91,-5670.21,-5665.44,285.29,-665.27,-665.92,-61.86,1111,1111,1111,1111
5625,1758,-1409,15463,-17.29,85.13,-36.18,455.84,-49.39,1284.32,-111.18,-91.95,-226.09,-5670.21,-5665.44,285.29,-664.10,-668.37,-62.40,1111,1111,1111,1111
5632,1773,-1456,15461,-17.82,85.93,-33.79,455.84,-49.39,1284.32,-111.41,-92.78,-226.19,-5670.21,-5665.44,285.29,-665.55,-663.30,-62.03,1111,1111,1111,1111
5639,1747,-1386,15429,-18.62,88.59,-34.32,455.84,-49.39,1284.32,-111.27,-91.74,-226.54,-5670.21,-5665.44,285.29,-667.85,-674.72,-63.43,1111,1111,1111,1111
5644,1780,-1353,15480,-15.96,87.52,-31.66,455.84,-49.39,1284.32,-111.51,-90.96,-226.81,-5670.21,-5665.44,285.29,-665.52,-673.99,-63.17,1111,1111,1111,1111
5651,1797,-1423,15424,-18.62,86.99,-34.32,455.84,-51.01,1284.32,-111.97,-91.75,-226.91,-5670.21,-5665.44,285.29,-664.34,-664.38,-62.01,1111,1111,1111,1111
5657,1766,-1359,15514,-20.22,88.59,-36.18,455.84,-51.01,1284.32,-111.92,-90.87,-227.14,-5670.21,-5665.44,285.29,-667.31,-674.68,-63.03,1111,1111,1111,1111
5663,1727,-1364,15459,-18.36,87.26,-34.85,455.84,-51.01,1284.32,-110.85,-90.28,-227.13,-5670.21,-5664.14,285.29,-673.17,-672.15,-61.45,1111,1111,1111,1111
5669,1800,-1396,15440,-17.82,88.85,-34.05,455.84,-51.01,1284.32,-111.36,-90.79,-227.22,-5670.21,-5664.14,285.29,-663.79,-665.52,-62.08,1111,1111,1111,1111
5677,1761,-1391,15474,-18.62,87.79,-31.92,455.84,-51.01,1284.32,-111.73,-91.34,-227.20,-5670.21,-5664.14,285.29,-664.93,-665.64,-61.36,1111,1111,1111,1111
5682,1756,-1366,15459,-18.62,88.85,-34.58,455.84,-51.01,1284.32,-111.86,-90.77,-227.31,-5670.21,-5664.14,285.29,-666.10,-672.59,-62.26,1111,1111,1111,1111
5689,1772,-1400,15469,-16.76,86.19,-35.65,455.84,-49.39,1284.32,-112.27,-91.32,-227.39,-5670.21,-5664.14,285.29,-664.71,-665.70,-61.93,1111,1111,1111,1111
5695,1748,-1341,15472,-20.75,90.45,-35.91,455.84,-49.39,1284.32,-111.79,-90.29,-227.68,-5670.21,-5664.14,285.29,-670.12,-675.51,-63.45,1111,1111,1111,1111
5701,1775,-1333,15489,-20.48,86.46,-34.85,455.84,-49.39,1284.32,-112.03,-89.45,-227.92,-5670.21,-5664.14,285.29,-665.58,-673.69,-62.95,1111,1111,1111,1111
5707,1782,-1358,15452,-19.42,86.99,-34.58,455.84,-49.39,1284.32,-112.51,-89.65,-227.97,-5670.21,-5664.14,285.29,-663.76,-667.63,-61.96,1111,1111,1111,1111
5713,1768,-1431,15420,-18.62,85.13,-34.32,455.84,-49.39,1284.32,-112.35,-90.97,-228.01,-5670.21,-5664.14,285.29,-667.84,-661.54,-61.77,1111,1111,1111,1111
5720,1735,-1414,15481,-17.82,87.26,-34.32,455.84,-49.39,1284.32,-111.42,-91.82,-227.99,-5670.21,-5664.14,285.29,-673.06,-663.16,-61.52,1111,1111,1111,1111
5727,1768,-1406,15442,-21.81,86.19,-34.32,455.84,-49.39,1284.32,-111.95,-92.00,-228.14,-5670.21,-5664.14,285.29,-664.04,-667.62,-62.45,1111,1111,1111,1111
5733,1718,-1413,15455,-19.69,85.93,-35.12,455.84,-49.39,1284.32,-110.60,-92.22,-228.23,-5670.21,-5664.14,285.29,-675.79,-667.23,-62.20,1111,1111,1111,1111
5739,1721,-1386,15489,-18.62,84.07,-33.25,455.84,-49.39,1284.32,-109.99,-91.22,-228.47,-5670.21,-5664.14,285.29,-670.73,-674.49,-62.99,1111,1111,1111,1111
5745,1775,-1339,15470,-21.02,86.46,-33.25,455.84,-49.39,1284.32,-110.39,-90.63,-228.70,-5670.21,-5664.14,285.29,-664.57,-672.66,-63.19,1111,1111,1111,1111
5751,1796,-1388,15471,-17.82,88.32,-34.85,455.84,-49.39,1284.32,-111.06,-90.89,-228.86,-5670.21,-5664.14,285.29,-663.33,-667.30,-62.60,1111,1111,1111,1111
5757,1754,-1378,15489,-20.22,85.40,-36.71,455.84,-49.39,1284.32,-111.40,-90.75,-228.94,-5670.21,-5664.14,285.29,-664.83,-669.68,-62.21,1111,1111,1111,1111
5765,1739,-1414,15446,-18.89,86.46,-34.58,455.84,-49.39,1284.32,-111.13,-91.95,-228.91,-5670.21,-5664.14,285.29,-668.59,-662.22,-61.56,1111,1111,1111,1111
5771,1751,-1383,15483,-19.15,88.59,-33.25,455.84,-49.39,1284.32,-111.24,-91.28,-229.10,-5670.21,-5664.14,285.29,-666.37,-673.00,-62.93,1111,1111,1111,1111
5777,1756,-1396,15430,-16.49,85.93,-34.32,455.84,-49.39,1284.32,-111.68,-91.61,-229.17,-5670.21,-5664.14,285.29,-664.55,-666.86,-62.11,1111,1111,1111,1111
5783,1775,-1330,15432,-22.88,86.73,-34.32,455.84,-49.39,1284.32,-111.80,-90.78,-229.44,-5670.21,-5664.14,285.29,-666.21,-674.31,-63.59,1111,1111,1111,1111
5789,1770,-1346,15489,-17.29,88.59,-34.32,455.84,-49.39,1284.32,-112.00,-89.93,-229.66,-5670.21,-5664.14,285.29,-665.84,-673.69,-63.04,1111,1111,1111,1111
5795,1791,-1377,15484,-14.63,84.07,-32.46,455.84,-49.39,1284.32,-112.50,-90.26,-229.71,-5670.21,-5664.14,285.29,-663.66,-666.71,-62.10,1111,1111,1111,1111
5803,1766,-1385,15458,-17.29,86.19,-34.32,455.84,-49.39,1284.32,-112.65,-90.91,-229.66,-5670.21,-5664.14,285.29,-666.08,-665.00,-61.52,1111,1111,1111,1111
5808,1784,-1366,15472,-18.36,88.32,-35.38,455.84,-49.39,1284.32,-112.99,-90.49,-229.81,-5670.21,-5664.14,285.29,-664.67,-671.55,-62.80,1111,1111,1111,1111
5815,1746,-1368,15493,-20.48,87.26,-34.58,455.84,-49.39,1284.32,-111.77,-90.09,-229.82,-5670.21,-5664.14,285.29,-673.73,-671.10,-61.83,1111,1111,1111,1111
5821,1728,-1370,15408,-21.81,87.52,-35.12,455.84,-49.39,1284.32,-111.24,-90.66,-229.67,-5670.21,-5664.14,285.29,-670.52,-665.09,-60.80,1111,1111,1111,1111
5827,1770,-1384,15500,-19.42,85.40,-34.58,455.84,-49.39,1286.27,-111.78,-90.85,-229.74,-5670.21,-5664.14,285.29,-663.98,-667.75,-62.25,1111,1111,1111,1111
5833,1740,-1338,15438,-19.69,89.92,-36.18,455.84,-49.39,1286.27,-111.43,-89.88,-229.96,-5670.21,-5664.14,285.29,-669.28,-675.18,-63.26,1111,1111,1111,1111
5840,1789,-1381,15464,-22.35,85.40,-31.92,455.84,-49.39,1286.27,-112.01,-90.40,-230.03,-5670.21,-5664.14,285.29,-663.70,-665.89,-62.20,1111,1111,1111,1111
5846,1777,-1397,15428,-19.42,86.73,-34.58,455.84,-49.39,1286.27,-112.35,-91.05,-230.07,-5670.21,-5664.14,285.29,-664.73,-664.56,-62.12,1111,1111,1111,1111
5853,1697,-1365,15432,-21.81,87.52,-33.52,455.84,-49.39,1286.27,-110.61,-90.65,-230.26,-5670.21,-5664.14,285.29,-676.93,-671.06,-62.91,1111,1111,1111,1111
5859,1729,-1370,15404,-18.09,87.26,-32.99,455.84,-49.39,1286.27,-110.81,-90.72,-230.22,-5670.21,-5664.14,285.29,-665.82,-668.35,-61.59,1111,1111,1111,1111
5865,1780,-1396,15487,-19.42,87.26,-33.52,455.84,-49.39,1286.27,-111.42,-91.18,-230.31,-5670.21,-5664.14,285.29,-663.77,-666.29,-62.41,1111,1111,1111,1111
5871,1731,-1357,15457,-17.82,88.06,-31.39,455.84,-49.39,1286.27,-110.95,-90.28,-230.46,-5670.21,-5664.14,285.29,-670.19,-674.72,-62.83,1111,1111,1111,1111
5878,1803,-1326,15483,-16.76,85.13,-34.85,455.84,-49.39,1286.27,-111.52,-89.75,-230.70,-5670.21,-5664.14,285.29,-663.77,-671.97,-63.28,1111,1111,1111,1111
5883,1706,-1399,15449,-21.02,88.85,-32.99,455.84,-49.39,1286.27,-110.52,-90.79,-230.65,-5670.21,-5664.14,285.29,-673.56,-662.09,-61.61,1111,1111,1111,1111
5891,1724,-1426,15475,-21.02,86.19,-33.52,455.84,-49.39,1286.27,-110.11,-92.07,-230.62,-5670.21,-5664.14,285.29,-669.51,-661.47,-61.74,1111,1111,1111,1111
5897,1710,-1378,15473,-20.48,85.66,-34.58,455.84,-49.39,1286.27,-109.55,-91.20,-230.79,-5670.21,-5664.14,285.29,-670.93,-674.42,-63.06,1111,1111,1111,1111
5903,1748,-1394,15442,-20.48,85.13,-33.79,455.84,-49.39,1284.32,-110.14,-91.59,-230.87,-5670.21,-5664.14,285.29,-663.88,-666.51,-62.37,1111,1111,1111,1111
5909,1778,-1455,15446,-17.82,85.66,-33.25,455.84,-49.39,1284.32,-110.46,-92.40,-230.95,-5670.21,-5664.14,285.29,-665.09,-663.25,-62.47,1111,1111,1111,1111
5916,1724,-1420,15474,-18.62,86.19,-36.98,455.84,-49.39,1284.32,-110.18,-92.88,-230.94,-5671.51,-5664.14,285.29,-668.90,-665.91,-61.89,1111,1111,1111,1111
5922,1767,-1382,15472,-20.22,87.52,-34.58,455.84,-49.39,1284.32,-110.56,-92.28,-231.20,-5671.51,-5664.14,285.29,-664.88,-672.44,-63.61,1111,1111,1111,1111
5928,1768,-1380,15491,-16.49,85.93,-35.91,455.84,-49.39,1284.32,-111.03,-91.66,-231.45,-5671.51,-5664.14,285.29,-664.64,-672.18,-63.44,1111,1111,1111,1111
5935,1746,-1377,15386,-18.09,87.26,-34.85,455.84,-49.39,1284.32,-111.39,-91.40,-231.56,-5671.51,-5664.14,285.29,-664.82,-670.38,-62.70,1111,1111,1111,1111
5941,1777,-1395,15407,-19.69,88.85,-33.25,455.84,-49.39,1284.32,-111.95,-91.71,-231.66,-5671.51,-5664.14,285.29,-663.86,-666.88,-62.64,1111,1111,1111,1111
5947,1744,-1361,15499,-20.48,87.79,-38.31,455.84,-49.39,1284.32,-111.47,-90.74,-231.89,-5671.51,-5664.14,285.29,-670.29,-675.06,-63.57,1111,1111,1111,1111
5954,1780,-1374,15441,-18.36,86.99,-34.58,455.84,-49.39,1284.32,-112.09,-90.86,-232.00,-5671.51,-5664.14,285.29,-663.66,-668.13,-62.67,1111,1111,1111,1111
5959,1764,-1366,15466,-16.76,89.39,-33.79,455.84,-49.39,1284.32,-112.34,-90.52,-232.05,-5671.51,-5664.14,285.29,-665.50,-671.04,-62.41,1111,1111,1111,1111
5966,1761,-1380,15409,-18.89,90.72,-36.71,454.26,-49.39,1284.32,-112.58,-91.06,-232.03,-5670.21,-5664.14,285.29,-665.60,-665.80,-61.99,1111,1111,1111,1111
5972,1772,-1363,15422,-19.42,85.13,-34.05,454.26,-49.39,1284.32,-112.87,-90.62,-232.16,-5670.21,-5664.14,285.29,-664.96,-671.73,-62.91,1111,1111,1111,1111
5979,1742,-1397,15477,-18.09,88.32,-36.71,455.84,-49.39,1284.32,-111.82,-91.56,-232.07,-5670.21,-5664.14,285.29,-672.92,-663.45,-61.60,1111,1111,1111,1111
5985,1701,-1396,15424,-17.56,87.52,-35.38,455.84,-49.39,1284.32,-110.36,-91.82,-232.11,-5670.21,-5664.14,285.29,-676.69,-666.97,-62.33,1111,1111,1111,1111
5992,1710,-1382,15465,-17.82,82.47,-33.25,454.26,-49.39,1284.32,-109.60,-91.07,-232.17,-5670.21,-5664.14,285.29,-671.60,-673.01,-62.44,1111,1111,1111,1111
5997,1746,-1399,15460,-21.28,88.85,-34.32,454.26,-49.39,1284.32,-110.03,-91.56,-232.21,-5670.21,-5664.14,285.29,-664.42,-665.55,-62.39,1111,1111,1111,1111
6004,1746,-1347,15438,-15.96,88.32,-33.79,454.26,-49.39,1284.32,-110.31,-90.73,-232.45,-5670.21,-5664.14,285.29,-665.57,-673.57,-63.48,1111,1111,1111,1111
6009,1784,-1402,15493,-18.09,86.46,-36.45,454.26,-49.39,1284.32,-110.83,-91.19,-232.55,-5670.21,-5664.14,285.29,-663.76,-665.79,-62.78,1111,1111,1111,1111
6017,1744,-1373,15488,-16.49,86.99,-34.32,454.26,-49.39,1284.32,-111.07,-90.71,-232.61,-5670.21,-5664.14,285.29,-665.75,-671.43,-62.49,1111,1111,1111,1111
6023,1732,-1429,15457,-17.82,85.40,-35.12,454.26,-49.39,1284.32,-110.74,-91.83,-232.60,-5670.21,-5664.14,285.29,-669.27,-661.45,-62.08,1111,1111,1111,1111
6029,1770,-1357,15489,-20.48,88.32,-36.18,454.26,-49.39,1284.32,-111.09,-91.08,-232.87,-5670.21,-5664.14,285.29,-665.12,-673.08,-63.72,1111,1111,1111,1111
6035,1782,-1345,15429,-18.62,88.59,-34.32,454.26,-49.39,1284.32,-111.54,-90.62,-233.06,-5670.21,-5664.14,285.29,-664.05,-671.75,-63.45,1111,1111,1111,1111
6042,1810,-1396,15471,-20.22,86.19,-34.85,454.26,-49.39,1284.32,-112.19,-91.09,-233.18,-5670.21,-5664.14,285.29,-663.38,-666.16,-62.92,1111,1111,1111,1111
6047,1762,-1352,15417,-18.36,88.06,-32.99,454.26,-49.39,1284.32,-112.36,-90.44,-233.32,-5670.21,-5664.14,285.29,-665.85,-673.09,-63.12,1111,1111,1111,1111
6054,1734,-1356,15445,-18.62,86.19,-32.46,454.26,-49.39,1284.32,-111.39,-89.93,-233.24,-5670.21,-5664.14,285.29,-672.51,-671.75,-61.75,1111,1111,1111,1111
6061,1717,-1380,15528,-18.89,87.26,-36.71,454.26,-49.39,1284.32,-110.31,-90.62,-233.11,-5670.21,-5664.14,285.29,-674.34,-664.27,-61.39,1111,1111,1111,1111
6067,1769,-1346,15509,-17.29,88.06,-33.25,454.26,-49.39,1284.32,-110.85,-90.10,-233.28,-5670.21,-5664.14,285.29,-664.19,-671.70,-63.15,1111,1111,1111,1111
6073,1776,-1380,15481,-20.75,87.79,-34.32,454.26,-49.39,1284.32,-111.33,-90.55,-233.32,-5670.21,-5664.14,285.29,-663.93,-665.95,-62.51,1111,1111,1111,1111
6080,1802,-1384,15464,-20.48,87.26,-32.19,454.26,-49.39,1284.32,-111.99,-90.89,-233.43,-5670.21,-5664.14,285.29,-663.32,-666.85,-62.85,1111,1111,1111,1111
6085,1770,-1398,15478,-18.09,86.19,-34.05,454.26,-49.39,1284.32,-112.27,-91.45,-233.42,-5670.21,-5664.14,285.29,-665.10,-665.07,-62.20,1111,1111,1111,1111
6092,1781,-1364,15510,-17.82,87.52,-34.05,454.26,-49.39,1284.32,-112.54,-90.71,-233.63,-5670.21,-5664.14,285.29,-665.38,-673.07,-63.43,1111,1111,1111,1111
6098,1762,-1385,15469,-19.69,87.52,-34.05,454.26,-49.39,1284.32,-112.58,-91.16,-233.54,-5670.21,-5664.14,285.29,-666.68,-665.83,-61.70,1111,1111,1111,1111
6105,1757,-1393,15480,-17.56,87.26,-33.52,454.26,-49.39,1284.32,-112.34,-91.57,-233.43,-5670.21,-5664.14,285.29,-668.30,-666.41,-61.64,1111,1111,1111,1111
6111,1784,-1403,15496,-20.75,86.46,-35.38,454.26,-49.39,1284.32,-112.76,-91.82,-233.50,-5670.21,-5664.14,285.29,-664.18,-667.06,-62.72,1111,1111,1111,1111
6118,1762,-1371,15464,-20.22,86.46,-33.25,454.26,-49.39,1284.32,-112.53,-90.84,-233.70,-5671.51,-5664.14,285.29,-668.34,-674.12,-63.37,1111,1111,1111,1111
6123,1723,-1377,15427,-21.28,85.40,-34.32,454.26,-49.39,1284.32,-111.28,-91.04,-233.64,-5671.51,-5664.14,285.29,-675.50,-667.50,-61.88,1111,1111,1111,1111
6130,1672,-1391,15465,-20.22,85.93,-34.85,454.26,-49.39,1284.32,-109.47,-91.38,-233.73,-5671.51,-5664.14,285.29,-677.68,-666.76,-62.77,1111,1111,1111,1111
6136,1737,-1379,15497,-19.69,87.26,-33.79,454.26,-49.39,1284.32,-109.91,-91.24,-233.79,-5671.51,-5664.14,285.29,-664.58,-669.70,-62.65,1111,1111,1111,1111
6142,1770,-1400,15438,-21.28,88.06,-35.91,454.26,-49.39,1284.32,-110.51,-91.70,-233.90,-5671.51,-5664.14,285.29,-663.89,-666.04,-62.95,1111,1111,1111,1111
6149,1792,-1410,15374,-18.62,85.40,-35.91,454.26,-49.39,1284.32,-111.07,-92.08,-234.03,-5671.51,-5664.14,285.29,-663.54,-666.13,-63.20,1111,1111,1111,1111
6155,1730,-1399,15401,-19.15,88.32,-35.38,454.26,-49.39,1284.32,-111.06,-92.29,-234.00,-5671.51,-5664.14,285.29,-667.31,-667.45,-62.14,1111,1111,1111,1111
6161,1815,-1350,15431,-19.69,86.46,-31.39,454.26,-49.39,1284.32,-111.55,-91.81,-234.24,-5671.51,-5664.14,285.29,-664.00,-671.83,-63.86,1111,1111,1111,1111
6168,1754,-1391,15472,-20.75,87.52,-33.79,454.26,-49.39,1284.32,-111.82,-91.64,-234.28,-5670.21,-5664.14,284.00,-665.51,-669.62,-62.42,1111,1111,1111,1111
6173,1756,-1400,15419,-18.62,88.32,-37.78,454.26,-49.39,1284.32,-112.07,-92.05,-234.30,-5670.21,-5664.14,284.00,-665.35,-665.95,-62.32,1111,1111,1111,1111
6180,1762,-1392,15435,-18.89,85.66,-36.71,454.26,-49.39,1284.32,-112.41,-91.83,-234.40,-5670.21,-5664.14,284.00,-665.02,-669.97,-62.83,1111,1111,1111,1111
6187,1768,-1405,15409,-17.29,86.73,-34.58,454.26,-49.39,1284.32,-112.71,-92.24,-234.44,-5670.21,-5664.14,284.00,-664.93,-665.96,-62.41,1111,1111,1111,1111
6193,1764,-1370,15465,-15.70,86.73,-35.91,454.26,-49.39,1284.32,-112.50,-91.17,-234.70,-5670.21,-5664.14,284.00,-668.10,-674.78,-63.73,1111,1111,1111,1111
6199,1806,-1324,15510,-18.89,84.33,-35.38,454.26,-49.39,1284.32,-112.76,-90.39,-234.95,-5670.21,-5664.14,284.00,-665.22,-673.91,-63.89,1111,1111,1111,1111
6205,1775,-1372,15476,-17.56,84.86,-34.32,454.26,-49.39,1284.32,-113.08,-90.65,-234.89,-5670.21,-5664.14,284.00,-664.95,-667.27,-61.91,1111,1111,1111,1111
6211,1795,-1384,15444,-18.36,84.07,-33.25,454.26,-49.39,1284.32,-113.53,-91.03,-234.92,-5670.21,-5664.14,284.00,-663.86,-666.30,-62.44,1111,1111,1111,1111
6217,1783,-1366,15414,-20.75,87.26,-34.58,454.26,-49.39,1284.32,-113.86,-90.75,-234.99,-5670.21,-5664.14,284.00,-664.83,-670.45,-62.70,1111,1111,1111,1111
6223,1716,-1347,15476,-18.89,86.99,-32.99,454.26,-49.39,1284.32,-112.29,-90.25,-235.16,-5670.21,-5664.14,285.29,-676.53,-671.95,-63.50,1111,1111,1111,1111
6231,1738,-1350,15449,-15.70,88.32,-30.59,454.26,-49.39,1284.32,-111.61,-89.77,-234.98,-5670.21,-5664.14,285.29,-670.91,-671.64,-61.43,1111,1111,1111,1111
6236,1781,-1347,15425,-16.23,85.93,-34.05,454.26,-49.39,1284.32,-112.16,-89.85,-235.03,-5670.21,-5664.14,285.29,-663.38,-668.42,-62.78,1111,1111,1111,1111
6243,1791,-1385,15450,-19.15,87.79,-30.86,454.26,-49.39,1284.32,-112.60,-90.59,-235.03,-5670.21,-5664.14,285.29,-664.42,-664.60,-62.44,1111,1111,1111,1111
6249,1749,-1327,15442,-18.62,85.40,-32.72,454.26,-49.39,1284.32,-112.23,-89.62,-235.18,-5670.21,-5664.14,285.29,-669.35,-675.21,-63.37,1111,1111,1111,1111
6255,1735,-1389,15481,-17.56,88.32,-36.18,454.26,-49.39,1284.32,-111.48,-90.81,-235.06,-5670.21,-5664.14,285.29,-671.39,-662.00,-61.80,1111,1111,1111,1111
6261,1776,-1360,15496,-19.95,84.86,-34.85,454.26,-49.39,1284.32,-111.95,-90.54,-235.16,-5670.21,-5664.14,285.29,-663.91,-670.54,-63.08,1111,1111,1111,1111
6267,1771,-1405,15462,-20.22,88.06,-34.85,454.26,-49.39,1284.32,-112.15,-91.51,-235.15,-5670.21,-5664.14,285.29,-665.81,-663.25,-62.39,1111,1111,1111,1111
6275,1789,-1368,15516,-21.28,89.39,-34.58,454.26,-49.39,1284.32,-112.55,-91.02,-235.32,-5670.21,-5664.14,285.29,-664.49,-671.77,-63.52,1111,1111,1111,1111
6281,1766,-1387,15461,-17.03,86.19,-36.45,454.26,-47.77,1284.32,-112.75,-91.09,-235.36,-5670.21,-5664.14,285.29,-665.79,-668.37,-62.72,1111,1111,1111,1111
6287,1725,-1377,15536,-19.15,84.86,-35.91,454.26,-47.77,1284.32,-111.33,-90.67,-235.52,-5670.21,-5664.14,285.29,-676.27,-671.54,-63.55,1111,1111,1111,1111
6293,1735,-1371,15461,-18.36,89.65,-34.85,454.26,-47.77,1284.32,-111.11,-90.43,-235.47,-5670.21,-5664.14,285.29,-668.39,-670.20,-62.17,1111,1111,1111,1111
6299,1766,-1396,15517,-17.56,88.06,-33.79,454.26,-47.77,1284.32,-111.45,-90.98,-235.48,-5670.21,-5664.14,285.29,-664.86,-665.23,-62.58,1111,1111,1111,1111
6305,1756,-1394,15456,-17.56,86.73,-36.98,454.26,-49.39,1284.32,-111.74,-91.65,-235.45,-5670.21,-5664.14,285.29,-665.36,-664.90,-62.33,1111,1111,1111,1111
6311,1765,-1369,15490,-20.22,88.06,-35.38,454.26,-49.39,1284.32,-111.97,-91.07,-235.59,-5670.21,-5664.14,285.29,-665.52,-672.54,-63.39,1111,1111,1111,1111
6319,1747,-1405,15427,-21.28,87.79,-33.25,454.26,-47.77,1284.32,-111.82,-91.95,-235.55,-5670.21,-5664.14,285.29,-667.84,-663.46,-62.25,1111,1111,1111,1111
6325,1833,-1346,15421,-19.42,85.40,-36.18,454.26,-47.77,1284.32,-112.35,-91.45,-235.84,-5671.51,-5664.14,285.29,-663.82,-671.87,-64.32,1111,1111,1111,1111
6331,1768,-1361,15521,-21.02,86.19,-33.52,454.26,-47.77,1284.32,-112.23,-90.43,-236.09,-5671.51,-5664.14,285.29,-667.84,-674.61,-64.00,1111,1111,1111,1111
6337,1753,-1373,15516,-17.29,84.07,-36.98,454.26,-47.77,1284.32,-111.97,-90.30,-236.02,-5671.51,-5664.14,285.29,-668.81,-669.69,-62.11,1111,1111,1111,1111
6343,1752,-1357,15468,-20.75,87.26,-34.05,454.26,-49.39,1284.32,-112.10,-90.22,-235.88,-5671.51,-5664.14,285.29,-666.39,-669.34,-61.75,1111,1111,1111,1111
6349,1788,-1405,15449,-18.36,86.46,-35.38,454.26,-49.39,1284.32,-112.39,-91.02,-235.91,-5671.51,-5664.14,285.29,-665.21,-663.56,-62.70,1111,1111,1111,1111
6356,1784,-1360,15443,-19.15,86.73,-35.65,454.26,-49.39,1284.32,-112.91,-90.70,-236.03,-5671.51,-5664.14,285.29,-664.07,-670.60,-63.28,1111,1111,1111,1111
6362,1781,-1350,15461,-17.56,87.26,-35.65,454.26,-49.39,1284.32,-113.20,-90.21,-236.12,-5671.51,-5664.14,285.29,-665.12,-672.07,-63.16,1111,1111,1111,1111
6369,1729,-1382,15436,-17.03,89.92,-30.86,454.26,-49.39,1284.32,-111.83,-91.08,-236.00,-5671.51,-5664.14,285.29,-674.91,-663.87,-61.84,1111,1111,1111,1111
6375,1798,-1406,15385,-21.02,86.19,-33.25,454.26,-49.39,1284.32,-112.33,-91.69,-236.07,-5670.21,-5664.14,285.29,-663.83,-664.95,-63.04,1111,1111,1111,1111
6382,1785,-1392,15490,-19.95,87.26,-35.65,454.26,-49.39,1284.32,-112.86,-91.71,-236.17,-5670.21,-5664.14,285.29,-663.93,-668.55,-63.10,1111,1111,1111,1111
6387,1788,-1346,15467,-18.09,87.52,-36.98,454.26,-49.39,1284.32,-113.01,-90.91,-236.40,-5670.21,-5664.14,285.29,-665.87,-674.04,-64.13,1111,1111,1111,1111
6394,1711,-1417,15434,-19.69,88.59,-32.19,454.26,-49.39,1284.32,-111.58,-91.95,-236.39,-5670.21,-5664.14,285.29,-675.03,-662.81,-62.56,1111,1111,1111,1111
6400,1750,-1385,15500,-17.03,88.32,-34.05,454.26,-49.39,1284.32,-111.59,-91.46,-236.43,-5670.21,-5664.14,285.29,-666.98,-671.94,-62.82,1111,1111,1111,1111
6407,1746,-1388,15443,-17.29,86.46,-34.85,454.26,-49.39,1284.32,-111.75,-91.75,-236.33,-5670.21,-5664.14,285.29,-666.12,-667.06,-62.07,1111,1111,1111,1111
6413,1794,-1416,15437,-16.76,87.52,-35.65,454.26,-49.39,1284.32,-112.22,-92.22,-236.42,-5670.21,-5664.14,285.29,-663.85,-665.47,-63.20,1111,1111,1111,1111
6419,1790,-1402,15462,-18.09,87.52,-36.18,454.26,-49.39,1284.32,-112.80,-92.28,-236.56,-5670.21,-5664.14,285.29,-663.58,-668.31,-63.42,1111,1111,1111,1111
6425,1751,-1373,15455,-19.15,87.79,-35.65,454.26,-49.39,1284.32,-112.26,-91.32,-236.75,-5670.21,-5664.14,285.29,-670.27,-674.59,-63.78,1111,1111,1111,1111
6432,1808,-1354,15443,-16.49,86.46,-35.12,454.26,-49.39,1284.32,-112.87,-90.94,-236.95,-5670.21,-5664.14,285.29,-663.44,-670.97,-63.82,1111,1111,1111,1111
6437,1761,-1381,15440,-21.02,90.45,-31.92,454.26,-49.39,1284.32,-112.83,-91.36,-236.81,-5670.21,-5664.14,285.29,-667.09,-665.96,-61.74,1111,1111,1111,1111
6445,1735,-1416,15514,-19.15,85.93,-34.32,454.26,-49.39,1284.32,-111.58,-92.30,-236.75,-5670.21,-5664.14,285.29,-674.24,-663.22,-62.30,1111,1111,1111,1111
6451,1771,-1328,15468,-19.69,85.40,-35.91,454.26,-49.39,1284.32,-111.61,-91.37,-237.03,-5670.21,-5664.14,285.29,-666.84,-674.82,-64.50,1111,1111,1111,1111
6457,1740,-1340,15437,-17.29,86.19,-33.25,454.26,-49.39,1284.32,-111.38,-90.29,-237.19,-5670.21,-5664.14,285.29,-668.34,-674.94,-63.62,1111,1111,1111,1111
6463,1699,-1388,15439,-19.15,88.85,-32.19,454.26,-49.39,1284.32,-110.25,-91.20,-237.08,-5670.21,-5664.14,285.29,-674.45,-662.92,-61.96,1111,1111,1111,1111
6470,1714,-1398,15454,-19.69,85.93,-33.79,454.26,-49.39,1284.32,-109.89,-92.20,-236.89,-5670.21,-5664.14,285.29,-669.24,-663.00,-61.61,1111,1111,1111,1111
6476,1793,-1385,15439,-18.89,90.19,-35.12,454.26,-49.39,1284.32,-110.51,-92.15,-237.07,-5670.21,-5665.44,285.29,-663.31,-669.14,-63.82,1111,1111,1111,1111
6482,1817,-1393,15356,-18.09,88.59,-32.72,454.26,-49.39,1284.32,-111.21,-92.29,-237.25,-5670.21,-5665.44,285.29,-663.06,-667.94,-63.74,1111,1111,1111,1111
6489,1809,-1368,15471,-18.89,88.06,-36.71,454.26,-49.39,1284.32,-111.74,-91.94,-237.48,-5670.21,-5665.44,285.29,-663.56,-671.14,-64.17,1111,1111,1111,1111
6495,1770,-1355,15459,-18.62,89.65,-35.38,454.26,-49.39,1284.32,-111.99,-91.12,-237.69,-5670.21,-5665.44,285.29,-665.55,-673.54,-63.99,1111,1111,1111,1111
6501,1730,-1343,15492,-20.22,88.06,-32.99,454.26,-49.39,1284.32,-111.21,-90.20,-237.80,-5670.21,-5665.44,285.29,-672.16,-674.95,-63.43,1111,1111,1111,1111
6507,1683,-1351,15498,-17.29,87.26,-34.32,454.26,-49.39,1284.32,-109.45,-90.12,-237.79,-5670.21,-5665.44,285.29,-677.40,-669.54,-62.76,1111,1111,1111,1111
6513,1763,-1328,15465,-18.62,89.39,-36.71,454.26,-49.39,1284.32,-109.99,-89.87,-237.91,-5670.21,-5665.44,285.29,-663.72,-670.67,-63.55,1111,1111,1111,1111
6520,1736,-1432,15443,-17.82,87.52,-34.85,454.26,-49.39,1284.32,-109.88,-91.12,-237.91,-5670.21,-5665.44,285.29,-667.86,-661.69,-62.77,1111,1111,1111,1111
6526,1838,-1386,15496,-18.36,86.46,-33.79,454.26,-49.39,1284.32,-110.54,-91.31,-238.06,-5670.21,-5664.14,285.29,-663.03,-667.61,-63.76,1111,1111,1111,1111
6533,1739,-1429,15468,-15.16,86.73,-36.18,454.26,-49.39,1284.32,-110.48,-92.47,-238.04,-5670.21,-5664.14,285.29,-667.51,-662.06,-62.67,1111,1111,1111,1111
6539,1723,-1414,15377,-18.36,87.79,-35.65,454.26,-49.39,1284.32,-110.54,-93.14,-237.99,-5670.21,-5664.14,285.29,-666.78,-664.07,-62.45,1111,1111,1111,1111
6545,1753,-1372,15508,-18.09,88.06,-34.05,455.84,-49.39,1284.32,-110.66,-92.16,-238.24,-5670.21,-5664.14,285.29,-666.48,-674.13,-64.24,1111,1111,1111,1111
6551,1719,-1378,15465,-19.42,88.85,-34.05,455.84,-49.39,1284.32,-110.24,-91.54,-238.20,-5670.21,-5664.14,285.29,-669.90,-672.78,-62.53,1111,1111,1111,1111
6558,1728,-1449,15477,-22.35,85.13,-35.65,455.84,-49.39,1284.32,-109.99,-92.86,-238.18,-5670.21,-5664.14,285.29,-668.68,-661.06,-62.74,1111,1111,1111,1111
6563,1750,-1424,15459,-18.89,85.40,-34.05,455.84,-49.39,1284.32,-110.43,-93.28,-238.22,-5670.21,-5664.14,285.29,-664.21,-665.75,-63.08,1111,1111,1111,1111
6571,1740,-1356,15477,-20.22,86.99,-34.85,455.84,-49.39,1284.32,-110.32,-92.17,-238.52,-5670.21,-5664.14,285.29,-667.81,-674.95,-64.52,1111,1111,1111,1111
6577,1726,-1338,15463,-21.55,88.59,-35.38,455.84,-49.39,1284.32,-110.11,-91.14,-238.73,-5670.21,-5664.14,285.29,-668.55,-675.11,-64.20,1111,1111,1111,1111
6583,1708,-1366,15465,-18.09,86.46,-35.65,455.84,-49.39,1284.32,-109.64,-91.01,-238.41,-5670.21,-5664.14,285.29,-669.86,-669.53,-61.10,1111,1111,1111,1111
6589,1761,-1342,15463,-20.48,86.46,-34.58,455.84,-49.39,1284.32,-110.17,-90.70,-238.53,-5670.21,-5664.14,285.29,-663.78,-670.78,-63.59,1111,1111,1111,1111
6596,1780,-1362,15425,-19.69,85.40,-34.05,455.84,-49.39,1284.32,-110.85,-90.88,-238.62,-5670.21,-5664.14,285.29,-663.20,-667.75,-63.38,1111,1111,1111,1111
6601,1747,-1346,15495,-18.89,86.73,-35.12,455.84,-49.39,1284.32,-111.09,-90.34,-238.63,-5670.21,-5664.14,285.29,-665.52,-672.38,-62.98,1111,1111,1111,1111
6608,1761,-1358,15410,-18.62,85.93,-35.91,455.84,-49.39,1284.32,-111.66,-90.66,-238.62,-5670.21,-5664.14,285.29,-663.79,-667.03,-62.79,1111,1111,1111,1111
6614,1728,-1413,15450,-19.69,85.93,-33.79,455.84,-49.39,1284.32,-111.15,-91.78,-238.53,-5670.21,-5664.14,285.29,-670.40,-661.34,-62.31,1111,1111,1111,1111
6621,1705,-1391,15468,-17.82,88.59,-33.25,455.84,-51.01,1284.32,-109.86,-92.41,-238.28,-5670.21,-5664.14,285.29,-674.74,-664.97,-61.37,1111,1111,1111,1111
6627,1728,-1389,15436,-18.89,87.26,-34.58,455.84,-51.01,1284.32,-110.25,-92.55,-238.20,-5670.21,-5664.14,285.29,-664.75,-667.73,-62.30,1111,1111,1111,1111
6633,1730,-1365,15440,-19.69,87.26,-35.12,455.84,-51.01,1284.32,-110.43,-91.80,-238.26,-5670.21,-5664.14,285.29,-666.11,-672.91,-63.17,1111,1111,1111,1111
6639,1740,-1390,15431,-17.82,87.52,-33.25,455.84,-51.01,1284.32,-110.78,-92.28,-238.16,-5670.21,-5664.14,285.29,-664.89,-665.50,-62.20,1111,1111,1111,1111
6646,1764,-1382,15432,-19.42,87.52,-34.85,455.84,-51.01,1284.32,-111.38,-92.29,-238.22,-5670.21,-5664.14,285.29,-663.62,-668.59,-63.14,1111,1111,1111,1111
6651,1743,-1388,15489,-21.28,87.26,-34.85,455.84,-51.01,1284.32,-111.44,-92.21,-238.07,-5670.21,-5664.14,285.29,-666.66,-669.14,-61.81,1111,1111,1111,1111
6659,1748,-1411,15459,-21.55,86.99,-33.79,455.84,-51.01,1284.32,-111.55,-93.08,-237.94,-5670.21,-5664.14,285.29,-666.45,-663.63,-62.02,1111,1111,1111,1111
6665,1733,-1421,15488,-16.76,87.26,-34.85,455.84,-51.01,1284.32,-111.02,-93.62,-237.75,-5670.21,-5664.14,285.29,-670.56,-665.00,-61.56,1111,1111,1111,1111
6671,1782,-1389,15472,-15.96,86.46,-36.71,455.84,-51.01,1284.32,-111.56,-93.09,-237.97,-5670.21,-5664.14,285.29,-663.99,-671.52,-64.03,1111,1111,1111,1111
6677,1704,-1395,15433,-21.81,86.99,-34.32,455.84,-51.01,1284.32,-110.16,-92.79,-237.95,-5670.21,-5664.14,285.29,-675.87,-670.41,-62.68,1111,1111,1111,1111
6683,1783,-1393,15430,-19.15,88.85,-33.79,455.84,-51.01,1284.32,-110.82,-92.83,-238.08,-5670.21,-5664.14,285.29,-663.29,-668.32,-63.56,1111,1111,1111,1111
6689,1765,-1391,15515,-17.82,87.52,-34.85,455.84,-51.01,1284.32,-111.27,-92.56,-238.15,-5670.21,-5664.14,285.29,-664.16,-670.37,-63.27,1111,1111,1111,1111
6696,1757,-1385,15403,-17.82,84.33,-32.99,455.84,-51.01,1284.32,-111.82,-92.49,-238.17,-5670.21,-5664.14,285.29,-663.89,-668.97,-62.89,1111,1111,1111,1111
6702,1734,-1386,15512,-21.02,86.73,-36.98,455.84,-51.01,1284.32,-111.08,-91.97,-238.07,-5670.21,-5664.14,285.29,-671.90,-672.01,-62.19,1111,1111,1111,1111
6709,1744,-1407,15482,-18.62,86.19,-37.51,455.84,-51.01,1284.32,-111.19,-92.80,-237.94,-5670.21,-5664.14,285.29,-666.49,-663.78,-62.04,1111,1111,1111,1111
6715,1803,-1366,15453,-16.76,87.26,-35.12,455.84,-51.01,1284.32,-111.72,-92.42,-238.13,-5670.21,-5664.14,285.29,-663.57,-671.04,-64.01,1111,1111,1111,1111
6721,1769,-1421,15443,-21.55,87.26,-33.52,455.84,-51.01,1284.32,-112.04,-93.17,-238.10,-5670.21,-5664.14,285.29,-665.03,-663.93,-62.65,1111,1111,1111,1111
6727,1762,-1361,15422,-18.09,88.59,-34.58,455.84,-51.01,1284.32,-112.10,-92.27,-238.30,-5670.21,-5664.14,284.00,-666.56,-674.17,-63.91,1111,1111,1111,1111
6733,1728,-1371,15448,-18.09,87.26,-35.65,455.84,-51.01,1284.32,-111.16,-91.52,-238.23,-5670.21,-5664.14,284.00,-672.49,-672.95,-62.29,1111,1111,1111,1111
6739,1757,-1372,15447,-19.42,86.99,-33.79,455.84,-51.01,1284.32,-111.61,-91.64,-238.18,-5670.21,-5664.14,284.00,-664.11,-667.95,-62.32,1111,1111,1111,1111
6747,1760,-1372,15449,-18.36,86.99,-31.92,455.84,-49.39,1284.32,-112.04,-91.37,-238.20,-5670.21,-5664.14,284.00,-664.55,-670.27,-62.74,1111,1111,1111,1111
6752,1748,-1368,15452,-21.28,83.27,-31.66,455.84,-49.39,1284.32,-112.05,-91.05,-238.09,-5670.21,-5664.14,284.00,-666.92,-670.83,-61.95,1111,1111,1111,1111
6759,1763,-1366,15440,-16.49,87.26,-37.24,455.84,-49.39,1284.32,-112.46,-90.99,-238.07,-5670.21,-5664.14,284.00,-664.55,-669.14,-62.53,1111,1111,1111,1111
6764,1765,-1422,15402,-17.56,88.06,-33.52,455.84,-49.39,1284.32,-112.42,-92.01,-238.04,-5670.21,-5664.14,284.00,-667.18,-662.01,-62.49,1111,1111,1111,1111
6771,1794,-1388,15518,-17.82,88.06,-35.12,455.84,-49.39,1284.32,-112.97,-91.81,-238.16,-5670.21,-5664.14,284.00,-663.82,-669.85,-63.32,1111,1111,1111,1111
6777,1757,-1364,15474,-18.89,86.99,-32.72,455.84,-49.39,1284.32,-112.54,-90.93,-238.23,-5670.21,-5664.14,285.29,-669.56,-674.23,-63.28,1111,1111,1111,1111
6785,1736,-1368,15465,-20.22,86.99,-34.05,455.84,-49.39,1284.32,-111.47,-90.92,-237.99,-5670.21,-5664.14,285.29,-673.13,-668.85,-61.42,1111,1111,1111,1111
6790,1699,-1431,15499,-20.48,87.26,-36.18,455.84,-49.39,1284.32,-110.44,-91.98,-237.98,-5670.21,-5664.14,285.29,-673.86,-661.81,-62.71,1111,1111,1111,1111
6797,1719,-1431,15479,-17.56,88.59,-32.72,455.84,-49.39,1284.32,-109.98,-93.15,-237.88,-5670.21,-5664.14,285.29,-669.89,-661.70,-62.22,1111,1111,1111,1111
6802,1772,-1367,15428,-20.22,88.06,-33.52,455.84,-49.39,1284.32,-110.41,-92.62,-238.10,-5670.21,-5664.14,285.29,-664.36,-672.05,-64.22,1111,1111,1111,1111
6809,1806,-1379,15451,-19.15,85.93,-34.85,455.84,-49.39,1284.32,-111.10,-92.39,-238.32,-5670.21,-5664.14,285.29,-663.20,-669.89,-64.07,1111,1111,1111,1111
6815,1789,-1401,15408,-17.82,84.86,-34.32,455.84,-49.39,1284.32,-111.68,-92.56,-238.43,-5670.21,-5664.14,285.29,-663.17,-667.50,-63.60,1111,1111,1111,1111
6821,1776,-1396,15340,-15.96,88.32,-38.04,455.84,-49.39,1284.32,-112.29,-92.68,-238.57,-5670.21,-5664.14,285.29,-663.43,-667.84,-63.68,1111,1111,1111,1111
6828,1743,-1387,15453,-20.48,88.06,-32.72,455.84,-49.39,1284.32,-111.79,-91.94,-238.62,-5670.21,-5664.14,285.29,-670.16,-673.30,-63.18,1111,1111,1111,1111
6834,1723,-1372,15462,-18.09,87.52,-33.79,455.84,-49.39,1284.32,-110.72,-91.20,-238.61,-5670.21,-5664.14,285.29,-673.21,-672.98,-62.79,1111,1111,1111,1111
6840,1766,-1409,15380,-19.42,87.26,-33.52,455.84,-49.39,1284.32,-111.08,-91.93,-238.63,-5670.21,-5664.14,285.29,-664.74,-663.89,-63.01,1111,1111,1111,1111
6847,1784,-1374,15484,-17.82,89.39,-35.65,455.84,-49.39,1284.32,-111.66,-91.68,-238.78,-5670.21,-5664.14,285.29,-663.64,-670.16,-63.76,1111,1111,1111,1111
6852,1776,-1363,15425,-19.95,85.66,-32.19,455.84,-49.39,1284.32,-112.16,-91.41,-238.87,-5670.21,-5664.14,285.29,-663.77,-670.51,-63.49,1111,1111,1111,1111
6859,1742,-1344,15470,-18.89,88.32,-34.32,455.84,-49.39,1284.32,-111.66,-90.34,-238.98,-5670.21,-5664.14,285.29,-669.89,-674.91,-63.52,1111,1111,1111,1111
6865,1786,-1334,15434,-20.75,89.92,-34.32,455.84,-49.39,1284.32,-112.18,-90.13,-239.06,-5670.21,-5664.14,285.29,-663.60,-670.22,-63.48,1111,1111,1111,1111
6872,1717,-1361,15456,-21.81,84.86,-35.12,455.84,-49.39,1284.32,-110.84,-90.72,-238.82,-5670.21,-5664.14,285.29,-674.89,-665.43,-61.49,1111,1111,1111,1111
6878,1744,-1376,15448,-21.02,86.99,-34.32,455.84,-49.39,1284.32,-111.14,-91.28,-238.71,-5670.21,-5665.44,285.29,-665.20,-665.38,-62.17,1111,1111,1111,1111
6885,1804,-1338,15508,-21.02,87.79,-34.58,455.84,-49.39,1284.32,-111.71,-90.79,-238.91,-5670.21,-5665.44,285.29,-663.83,-671.77,-64.06,1111,1111,1111,1111
6890,1772,-1401,15538,-18.89,88.59,-31.92,455.84,-49.39,1284.32,-111.92,-91.55,-238.83,-5670.21,-5665.44,285.29,-665.64,-663.95,-62.39,1111,1111,1111,1111
6897,1750,-1328,15368,-18.62,85.13,-33.79,455.84,-49.39,1284.32,-111.97,-90.58,-239.01,-5670.21,-5665.44,285.29,-666.70,-674.61,-63.94,1111,1111,1111,1111
6902,1785,-1403,15362,-19.69,86.19,-32.99,455.84,-49.39,1284.32,-112.30,-91.38,-239.02,-5670.21,-5665.44,285.29,-664.79,-663.73,-63.01,1111,1111,1111,1111
6909,1742,-1353,15472,-20.48,88.32,-35.38,455.84,-49.39,1284.32,-111.72,-90.45,-239.05,-5670.21,-5665.44,285.29,-670.35,-674.32,-63.09,1111,1111,1111,1111
6916,1768,-1358,15444,-19.69,86.46,-34.85,455.84,-49.39,1284.32,-112.18,-90.62,-239.02,-5670.21,-5665.44,285.29,-663.92,-667.86,-62.70,1111,1111,1111,1111
6922,1776,-1372,15436,-20.48,86.46,-34.05,455.84,-49.39,1284.32,-112.66,-91.06,-238.98,-5670.21,-5665.44,285.29,-664.10,-666.32,-62.68,1111,1111,1111,1111
6928,1704,-1419,15457,-19.95,87.79,-35.38,455.84,-49.39,1284.32,-111.36,-92.03,-238.97,-5670.21,-5664.14,285.29,-675.02,-662.72,-62.87,1111,1111,1111,1111
6935,1780,-1366,15418,-20.48,85.40,-35.91,455.84,-49.39,1284.32,-111.97,-91.71,-239.14,-5670.21,-5664.14,285.29,-663.58,-670.52,-63.87,1111,1111,1111,1111
6940,1745,-1407,15430,-17.82,85.93,-38.57,455.84,-49.39,1284.32,-111.84,-92.55,-239.05,-5670.21,-5664.14,285.29,-667.84,-663.09,-62.32,1111,1111,1111,1111
6947,1802,-1385,15451,-19.69,89.12,-32.99,455.84,-49.39,1284.32,-112.46,-92.34,-239.22,-5670.21,-5664.14,285.29,-663.39,-669.82,-63.92,1111,1111,1111,1111
6952,1752,-1412,15399,-20.75,89.39,-37.78,455.84,-49.39,1284.32,-112.41,-93.03,-239.15,-5670.21,-5664.14,285.29,-667.31,-663.91,-62.50,1111,1111,1111,1111
6960,1732,-1435,15411,-19.95,85.66,-33.52,455.84,-49.39,1284.32,-111.53,-94.06,-239.08,-5670.21,-5664.14,285.29,-672.00,-662.58,-62.49,1111,1111,1111,1111
6966,1691,-1375,15526,-17.56,86.73,-35.91,455.84,-49.39,1284.32,-110.35,-93.18,-239.37,-5670.21,-5664.14,285.29,-674.77,-674.15,-64.83,1111,1111,1111,1111
6972,1762,-1385,15437,-18.62,81.41,-35.91,455.84,-49.39,1284.32,-110.89,-92.73,-239.55,-5670.21,-5664.14,285.29,-663.91,-671.32,-64.10,1111,1111,1111,1111
6978,1771,-1415,15428,-19.42,84.60,-36.18,455.84,-49.39,1284.32,-111.44,-93.08,-239.64,-5670.21,-5664.14,285.29,-663.62,-666.37,-63.51,1111,1111,1111,1111
6984,1743,-1350,15400,-18.09,88.32,-33.79,455.84,-49.39,1284.32,-111.29,-91.96,-239.90,-5670.21,-5664.14,285.29,-667.93,-675.02,-64.53,1111,1111,1111,1111
6990,1723,-1379,15422,-20.75,88.06,-36.45,455.84,-49.39,1284.32,-110.87,-91.79,-239.72,-5670.21,-5664.14,285.29,-669.81,-669.79,-61.85,1111,1111,1111,1111
6998,1733,-1367,15466,-18.09,88.06,-33.79,455.84,-49.39,1284.32,-110.89,-91.15,-239.67,-5670.21,-5664.14,285.29,-667.05,-672.35,-62.69,1111,1111,1111,1111
7003,1758,-1358,15464,-16.76,88.32,-32.72,455.84,-49.39,1284.32,-111.34,-90.94,-239.68,-5670.21,-5664.14,285.29,-664.13,-670.15,-63.07,1111,1111,1111,1111
7010,1765,-1378,15565,-19.42,89.39,-33.25,455.84,-49.39,1284.32,-111.73,-91.16,-239.57,-5670.21,-5664.14,285.29,-664.76,-667.54,-62.34,1111,1111,1111,1111
7016,1793,-1349,15423,-19.42,87.52,-31.66,455.84,-49.39,1284.32,-112.28,-90.95,-239.67,-5670.21,-5664.14,285.29,-663.41,-670.16,-63.66,1111,1111,1111,1111
7022,1745,-1424,15431,-20.22,87.26,-34.85,455.84,-49.39,1284.32,-111.87,-92.24,-239.61,-5670.21,-5664.14,285.29,-669.31,-661.23,-62.66,1111,1111,1111,1111
7028,1776,-1369,15444,-18.89,85.66,-33.25,455.84,-49.39,1284.32,-112.31,-91.77,-239.74,-5670.21,-5664.14,285.29,-664.27,-671.61,-63.79,1111,1111,1111,1111
7034,1770,-1407,15427,-18.09,88.59,-33.79,454.26,-49.39,1284.32,-112.60,-92.48,-239.71,-5670.21,-5664.14,285.29,-665.21,-664.49,-62.83,1111,1111,1111,1111
7041,1775,-1367,15474,-19.69,86.99,-35.38,454.26,-49.39,1284.32,-112.69,-91.68,-239.90,-5670.21,-5664.14,285.29,-666.30,-673.83,-64.23,1111,1111,1111,1111
7048,1743,-1391,15457,-21.02,87.52,-35.65,454.26,-49.39,1284.32,-111.85,-92.09,-239.69,-5670.21,-5664.14,285.29,-671.75,-666.34,-61.80,1111,1111,1111,1111
7054,1765,-1392,15408,-18.62,89.12,-34.32,454.26,-49.39,1284.32,-112.27,-92.24,-239.71,-5670.21,-5664.14,285.29,-664.19,-667.62,-63.16,1111,1111,1111,1111
7060,1734,-1382,15478,-18.36,86.73,-34.32,454.26,-49.39,1284.32,-111.26,-91.53,-239.73,-5670.21,-5664.14,285.29,-672.96,-672.83,-63.09,1111,1111,1111,1111
7066,1779,-1391,15489,-19.95,87.52,-34.85,454.26,-49.39,1284.32,-111.77,-91.78,-239.77,-5670.21,-5664.14,285.29,-663.67,-667.06,-63.30,1111,1111,1111,1111
7072,1696,-1366,15426,-16.76,89.39,-34.58,452.68,-49.39,1284.32,-110.15,-91.25,-239.87,-5670.21,-5664.14,285.29,-676.45,-671.78,-63.58,1111,1111,1111,1111
7078,1774,-1396,15486,-17.03,86.46,-35.38,452.68,-49.39,1284.32,-110.70,-91.66,-239.93,-5670.21,-5664.14,285.29,-663.70,-666.18,-63.42,1111,1111,1111,1111
7086,1774,-1351,15468,-18.62,85.13,-38.04,452.68,-49.39,1284.32,-111.23,-91.11,-240.14,-5670.21,-5664.14,285.29,-664.08,-671.88,-64.22,1111,1111,1111,1111
7091,1782,-1384,15445,-16.76,85.93,-36.18,452.68,-49.39,1284.32,-111.77,-91.41,-240.20,-5670.21,-5664.14,285.29,-663.50,-666.79,-63.47,1111,1111,1111,1111
7098,1797,-1398,15431,-17.29,88.32,-34.85,452.68,-49.39,1284.32,-112.35,-91.85,-240.29,-5670.21,-5664.14,285.29,-663.57,-666.11,-63.57,1111,1111,1111,1111
7104,1779,-1376,15462,-19.69,90.45,-34.58,452.68,-49.39,1284.32,-112.74,-91.57,-240.37,-5670.21,-5664.14,285.29,-664.37,-670.56,-63.64,1111,1111,1111,1111
7110,1728,-1353,15465,-18.09,85.66,-35.65,452.68,-49.39,1284.32,-111.53,-90.65,-240.51,-5670.21,-5664.14,285.29,-673.95,-674.04,-63.89,1111,1111,1111,1111
7116,1724,-1406,15490,-21.55,85.93,-34.05,452.68,-49.39,1284.32,-110.87,-91.72,-240.40,-5670.21,-5664.14,285.29,-671.45,-661.65,-62.34,1111,1111,1111,1111
7122,1766,-1395,15514,-19.15,85.13,-32.99,454.26,-49.39,1284.32,-111.42,-92.02,-240.39,-5670.21,-5664.14,285.29,-663.94,-666.96,-63.04,1111,1111,1111,1111
7129,1775,-1375,15498,-18.36,85.40,-33.25,454.26,-49.39,1284.32,-111.90,-91.67,-240.49,-5670.21,-5664.14,253.04,-664.03,-670.87,-59.82,1111,1111,1111,1111
7136,1750,-1367,15409,-16.23,87.79,-34.05,454.26,-49.39,1284.32,-112.15,-91.28,-240.46,-5670.21,-5664.14,253.04,-665.56,-670.93,-59.04,1111,1111,1111,1111
7141,1765,-1350,15388,-17.03,84.60,-35.12,454.26,-49.39,1284.32,-112.54,-90.89,-240.52,-5670.21,-5664.14,253.04,-664.37,-671.37,-59.62,1111,1111,1111,1111
7148,1740,-1370,15399,-17.03,88.32,-35.12,454.26,-49.39,1284.32,-112.11,-91.40,-240.24,-5670.21,-5664.14,253.04,-669.44,-665.73,-57.57,1111,1111,1111,1111
7154,1801,-1405,15427,-17.29,85.93,-35.65,454.26,-49.39,1284.32,-112.60,-91.92,-240.30,-5670.21,-5664.14,253.04,-663.74,-665.32,-59.63,1111,1111,1111,1111
7160,1700,-1426,15384,-18.89,86.73,-34.05,454.26,-49.39,1284.32,-111.18,-92.96,-240.30,-5670.21,-5664.14,253.04,-675.01,-662.76,-59.18,1111,1111,1111,1111
7166,1749,-1403,15445,-17.56,87.79,-33.25,454.26,-49.39,1284.32,-111.50,-92.81,-240.32,-5670.21,-5664.14,253.04,-664.98,-669.51,-59.37,1111,1111,1111,1111
7173,1787,-1423,15445,-16.76,89.12,-33.25,454.26,-49.39,1284.32,-112.06,-93.20,-240.42,-5670.21,-5664.14,253.04,-663.71,-666.22,-59.74,1111,1111,1111,1111
7179,1782,-1400,15405,-20.22,83.80,-31.66,454.26,-49.39,1284.32,-112.60,-93.02,-240.55,-5671.51,-5664.14,187.23,-663.70,-669.69,-52.14,1111,1111,1111,1111
7186,1774,-1452,15476,-19.42,88.06,-33.79,454.26,-49.39,1284.32,-112.63,-94.06,-240.55,-5671.51,-5664.14,187.23,-666.92,-662.52,-51.34,1111,1111,1111,1111
7192,1691,-1444,15492,-20.48,89.39,-32.19,454.26,-49.39,1284.32,-110.99,-94.21,-240.69,-5671.51,-5664.14,187.23,-677.87,-667.43,-52.28,1111,1111,1111,1111
7198,1762,-1420,15430,-19.42,88.32,-32.46,454.26,-49.39,1284.32,-111.51,-93.89,-240.86,-5671.51,-5664.14,187.23,-664.32,-670.21,-52.34,1111,1111,1111,1111
7204,1777,-1380,15475,-20.22,92.05,-35.12,454.26,-49.39,1284.32,-111.69,-93.12,-241.12,-5671.51,-5664.14,187.23,-665.99,-673.57,-53.07,1111,1111,1111,1111
7211,1767,-1370,15464,-18.62,87.52,-36.18,454.26,-49.39,1284.32,-111.86,-92.22,-241.36,-5671.51,-5664.14,187.23,-666.17,-673.81,-52.83,1111,1111,1111,1111
7217,1792,-1371,15437,-18.89,87.52,-33.25,454.26,-49.39,1284.32,-112.38,-91.94,-241.50,-5671.51,-5664.14,187.23,-663.72,-670.44,-52.31,1111,1111,1111,1111
7224,1765,-1393,15459,-15.43,87.26,-37.78,454.26,-49.39,1284.32,-112.67,-92.19,-241.43,-5671.51,-5664.14,187.23,-665.38,-667.22,-51.07,1111,1111,1111,1111
7230,1764,-1405,15493,-21.28,85.66,-35.12,454.26,-49.39,1284.32,-112.67,-92.61,-241.30,-5670.21,-5664.14,56.91,-666.90,-666.00,-34.98,1111,1111,1111,1111
7236,1794,-1422,15518,-19.69,89.92,-35.65,454.26,-49.39,1284.32,-113.13,-93.05,-241.35,-5670.21,-5664.14,56.91,-664.25,-666.02,-36.05,1111,1111,1111,1111
7242,1789,-1407,15454,-15.96,86.19,-32.99,454.26,-49.39,1284.32,-113.54,-92.92,-241.42,-5670.21,-5664.14,56.91,-664.13,-669.40,-36.29,1111,1111,1111,1111
7248,1734,-1390,15478,-18.89,85.93,-37.78,454.26,-49.39,1284.32,-112.03,-92.26,-241.60,-5670.21,-5664.14,56.91,-675.56,-672.33,-36.84,1111,1111,1111,1111
7255,1706,-1414,15511,-19.69,83.00,-34.58,454.26,-49.39,1284.32,-110.59,-92.73,-241.58,-5670.21,-5664.14,56.91,-676.48,-665.55,-35.69,1111,1111,1111,1111
7261,1721,-1398,15531,-18.09,89.39,-36.18,454.26,-49.39,1284.32,-109.90,-92.21,-241.48,-5670.21,-5664.14,56.91,-671.18,-671.66,-35.20,1111,1111,1111,1111
7267,1708,-1328,15407,-18.62,86.73,-33.25,454.26,-49.39,1284.32,-109.62,-91.19,-241.66,-5670.21,-5664.14,56.91,-669.10,-675.37,-36.98,1111,1111,1111,1111
7274,1721,-1393,15487,-17.82,87.26,-31.39,454.26,-49.39,1284.32,-109.72,-92.07,-241.46,-5670.21,-5664.14,56.91,-666.69,-663.69,-34.68,1111,1111,1111,1111
7280,1765,-1363,15473,-17.82,85.13,-32.99,454.26,-49.39,1284.32,-110.28,-91.73,-241.58,-5670.21,-5664.14,-42.45,-663.72,-670.80,-24.69,1111,1111,1111,1111
7286,1746,-1363,15484,-19.15,89.65,-35.65,454.26,-49.39,1284.32,-110.70,-91.28,-241.64,-5670.21,-5664.14,-42.45,-664.76,-671.33,-24.22,1111,1111,1111,1111
7292,1809,-1380,15521,-18.09,85.93,-36.18,454.26,-49.39,1284.32,-111.32,-91.41,-241.75,-5670.21,-5664.14,-42.45,-663.07,-667.88,-24.66,1111,1111,1111,1111
7299,1744,-1366,15437,-19.69,88.06,-36.18,454.26,-49.39,1284.32,-111.61,-91.26,-241.66,-5670.21,-5664.14,-42.45,-665.32,-669.58,-23.37,1111,1111,1111,1111
7305,1810,-1428,15403,-18.36,87.79,-34.85,454.26,-49.39,1284.32,-112.02,-91.99,-241.73,-5670.21,-5664.14,-42.45,-664.35,-663.95,-24.37,1111,1111,1111,1111
7312,1753,-1365,15423,-19.42,88.85,-34.85,454.26,-49.39,1284.32,-112.18,-91.35,-241.77,-5670.21,-5664.14,-42.45,-666.06,-672.34,-24.13,1111,1111,1111,1111
7317,1688,-1362,15507,-17.29,86.46,-33.79,454.26,-49.39,1284.32,-110.62,-91.10,-241.85,-5670.21,-5664.14,-42.45,-677.30,-670.38,-24.46,1111,1111,1111,1111
7324,1727,-1365,15463,-17.82,87.52,-34.58,454.26,-49.39,1282.38,-110.71,-91.19,-241.59,-5670.21,-5664.14,-42.45,-666.58,-668.24,-22.36,1111,1111,1111,1111
7330,1706,-1404,15431,-18.09,85.66,-32.72,454.26,-49.39,1282.38,-110.06,-92.29,-241.43,-5670.21,-5665.44,-119.87,-671.26,-661.91,-13.60,1111,1111,1111,1111
7336,1781,-1394,15431,-20.75,88.32,-35.38,454.26,-49.39,1282.38,-110.74,-92.49,-241.55,-5670.21,-5665.44,-119.87,-663.31,-667.65,-15.32,1111,1111,1111,1111
7343,1729,-1394,15454,-19.95,87.52,-33.52,454.26,-49.39,1282.38,-110.79,-92.50,-241.41,-5670.21,-5665.44,-119.87,-666.81,-668.71,-13.63,1111,1111,1111,1111
7350,1742,-1383,15476,-19.42,85.40,-32.99,454.26,-49.39,1282.38,-111.07,-92.01,-241.40,-5670.21,-5665.44,-119.87,-665.51,-671.51,-14.57,1111,1111,1111,1111
7355,1730,-1382,15381,-17.56,87.52,-34.32,454.26,-49.39,1282.38,-111.23,-92.18,-241.27,-5670.21,-5665.44,-119.87,-665.99,-667.68,-13.65,1111,1111,1111,1111
7362,1760,-1371,15389,-18.89,86.19,-33.79,454.26,-49.39,1284.32,-111.78,-91.89,-241.36,-5670.21,-5665.44,-119.87,-663.92,-670.44,-15.10,1111,1111,1111,1111
7367,1705,-1399,15439,-19.42,86.46,-35.12,454.26,-49.39,1284.32,-110.46,-92.44,-241.26,-5670.21,-5665.44,-119.87,-675.70,-665.23,-13.96,1111,1111,1111,1111
7374,1754,-1376,15485,-21.02,88.32,-35.38,454.26,-49.39,1284.32,-110.89,-91.95,-241.38,-5670.21,-5665.44,-119.87,-664.63,-671.64,-15.28,1111,1111,1111,1111
7380,1728,-1427,15526,-17.29,87.52,-31.92,454.26,-49.39,1284.32,-110.40,-93.03,-241.24,-5670.21,-5664.14,-193.42,-670.18,-661.93,-4.89,1111,1111,1111,1111
7387,1749,-1386,15436,-17.56,87.52,-32.72,454.26,-49.39,1284.32,-110.85,-92.55,-241.37,-5670.21,-5664.14,-193.42,-664.53,-671.36,-6.47,1111,1111,1111,1111
7393,1791,-1408,15524,-17.56,87.26,-35.12,454.26,-49.39,1284.32,-111.43,-92.67,-241.47,-5670.21,-5664.14,-193.42,-663.34,-667.81,-6.44,1111,1111,1111,1111
7400,1716,-1350,15457,-18.62,88.32,-34.58,454.26,-49.39,1284.32,-110.58,-91.51,-241.71,-5670.21,-5664.14,-193.42,-672.00,-675.29,-7.11,1111,1111,1111,1111
7405,1757,-1424,15437,-17.82,87.52,-35.38,454.26,-49.39,1284.32,-110.80,-92.38,-241.71,-5670.21,-5664.14,-193.42,-665.70,-662.97,-5.80,1111,1111,1111,1111
7412,1774,-1406,15443,-18.62,92.31,-34.05,454.26,-49.39,1284.32,-111.36,-92.72,-241.78,-5670.21,-5664.14,-193.42,-663.81,-666.60,-6.21,1111,1111,1111,1111
7418,1761,-1370,15392,-19.95,85.93,-32.72,454.26,-49.39,1284.32,-111.75,-92.22,-241.91,-5670.21,-5664.14,-193.42,-664.51,-671.85,-6.65,1111,1111,1111,1111
7425,1781,-1406,15415,-18.09,88.59,-32.72,454.26,-49.39,1284.32,-112.29,-92.67,-241.95,-5670.21,-5664.14,-193.42,-663.84,-665.98,-6.06,1111,1111,1111,1111
7431,1743,-1391,15408,-18.36,88.32,-36.45,454.26,-49.39,1284.32,-112.07,-92.36,-241.88,-5670.21,-5664.14,-208.90,-668.31,-670.57,-3.52,1111,1111,1111,1111
7437,1783,-1356,15380,-19.95,88.06,-37.51,454.26,-49.39,1284.32,-112.55,-91.81,-242.08,-5670.21,-5664.14,-208.90,-664.14,-671.85,-5.18,1111,1111,1111,1111
7443,1732,-1382,15527,-17.29,89.39,-34.85,454.26,-49.39,1284.32,-111.26,-91.55,-242.01,-5670.21,-5664.14,-208.90,-675.49,-670.41,-3.51,1111,1111,1111,1111
7450,1754,-1419,15424,-17.82,86.46,-34.58,454.26,-49.39,1284.32,-111.40,-92.59,-241.97,-5670.21,-5664.14,-208.90,-666.24,-662.66,-3.75,1111,1111,1111,1111
7455,1783,-1385,15519,-16.76,87.52,-33.52,454.26,-49.39,1284.32,-111.87,-92.24,-242.09,-5670.21,-5664.14,-208.90,-663.94,-670.85,-4.75,1111,1111,1111,1111
7462,1741,-1375,15438,-18.89,88.59,-35.38,454.26,-49.39,1284.32,-111.70,-91.59,-242.05,-5670.21,-5664.14,-208.90,-668.03,-672.44,-3.76,1111,1111,1111,1111
7469,1768,-1349,15432,-21.28,87.26,-36.18,454.26,-49.39,1284.32,-112.07,-91.10,-242.16,-5670.21,-5664.14,-208.90,-664.55,-671.93,-4.68,1111,1111,1111,1111
7475,1736,-1398,15474,-18.62,83.00,-35.65,454.26,-49.39,1284.32,-111.49,-92.15,-241.97,-5670.21,-5664.14,-208.90,-670.50,-662.41,-2.85,1111,1111,1111,1111
7481,1704,-1411,15494,-17.82,87.79,-34.32,454.26,-49.39,1284.32,-110.09,-92.76,-241.89,-5670.21,-5665.44,-211.48,-675.90,-664.93,-3.13,1111,1111,1111,1111
7487,1771,-1397,15479,-19.42,88.32,-35.91,454.26,-49.39,1284.32,-110.72,-92.72,-242.02,-5670.21,-5665.44,-211.48,-663.48,-668.95,-4.43,1111,1111,1111,1111
7493,1741,-1386,15450,-18.36,91.25,-33.52,454.26,-49.39,1284.32,-110.98,-92.33,-242.05,-5670.21,-5665.44,-211.48,-665.45,-671.36,-3.85,1111,1111,1111,1111
7500,1772,-1368,15462,-18.62,89.65,-36.18,454.26,-51.01,1284.32,-111.55,-92.04,-242.14,-5670.21,-5665.44,-211.48,-663.81,-670.43,-4.22,1111,1111,1111,1111
7505,1787,-1403,15414,-17.29,88.06,-34.85,454.26,-51.01,1284.32,-112.04,-92.54,-242.17,-5670.21,-5665.44,-211.48,-663.85,-665.54,-3.87,1111,1111,1111,1111
7513,1782,-1374,15426,-18.62,85.93,-35.91,454.26,-49.39,1284.32,-112.57,-92.11,-242.33,-5670.21,-5665.44,-211.48,-663.91,-671.26,-4.62,1111,1111,1111,1111
7518,1763,-1350,15463,-18.89,88.32,-35.91,454.26,-49.39,1284.32,-112.47,-91.23,-242.49,-5670.21,-5665.44,-211.48,-667.53,-674.73,-4.74,1111,1111,1111,1111
7525,1765,-1388,15491,-19.69,86.73,-32.99,454.26,-49.39,1284.32,-112.61,-91.87,-242.30,-5670.21,-5665.44,-211.48,-666.13,-665.19,-2.64,1111,1111,1111,1111
7531,1790,-1401,15439,-18.89,88.06,-34.85,454.26,-49.39,1284.32,-113.08,-92.33,-242.32,-5670.21,-5664.14,-210.19,-663.98,-665.81,-3.99,1111,1111,1111,1111
7538,1764,-1378,15488,-20.22,86.73,-32.72,454.26,-49.39,1284.32,-112.79,-91.52,-242.34,-5670.21,-5664.14,-210.19,-668.51,-673.27,-3.96,1111,1111,1111,1111
7543,1761,-1399,15351,-21.28,83.27,-35.65,454.26,-49.39,1284.32,-112.91,-92.37,-242.27,-5670.21,-5664.14,-210.19,-666.07,-663.17,-3.41,1111,1111,1111,1111
7550,1726,-1415,15386,-18.89,86.19,-38.04,454.26,-49.39,1284.32,-111.75,-93.30,-242.20,-5670.21,-5664.14,-210.19,-673.70,-663.15,-3.39,1111,1111,1111,1111
7556,1758,-1393,15431,-21.02,86.99,-34.58,454.26,-49.39,1284.32,-112.01,-92.80,-242.30,-5670.21,-5664.14,-210.19,-665.29,-671.80,-4.55,1111,1111,1111,1111
7563,1735,-1371,15416,-17.56,84.86,-31.13,455.84,-49.39,1284.32,-111.56,-91.80,-242.36,-5670.21,-5664.14,-210.19,-669.62,-674.33,-4.18,1111,1111,1111,1111
7569,1733,-1358,15432,-15.70,89.12,-37.24,455.84,-49.39,1284.32,-111.35,-91.10,-242.31,-5670.21,-5664.14,-210.19,-668.43,-673.28,-3.54,1111,1111,1111,1111
7575,1761,-1359,15503,-14.63,88.59,-33.79,455.84,-49.39,1284.32,-111.79,-90.88,-242.25,-5670.21,-5664.14,-210.19,-664.47,-670.09,-3.50,1111,1111,1111,1111
7581,1754,-1421,15399,-18.36,86.19,-35.91,455.84,-49.39,1284.32,-111.74,-92.03,-242.22,-5670.21,-5664.14,-210.19,-667.35,-661.74,-3.65,1111,1111,1111,1111
7588,1783,-1366,15454,-19.69,86.19,-35.12,455.84,-49.39,1284.32,-112.30,-91.70,-242.34,-5670.21,-5664.14,-210.19,-663.69,-670.54,-4.52,1111,1111,1111,1111
7595,1786,-1437,15454,-20.48,86.46,-34.85,455.84,-49.39,1284.32,-112.48,-92.64,-242.34,-5670.21,-5664.14,-210.19,-665.81,-662.49,-3.90,1111,1111,1111,1111
7601,1734,-1384,15463,-16.49,87.52,-33.52,455.84,-49.39,1284.32,-111.40,-91.93,-242.31,-5670.21,-5664.14,-210.19,-673.15,-672.70,-3.66,1111,1111,1111,1111
7607,1808,-1386,15418,-18.09,85.40,-33.25,455.84,-49.39,1284.32,-112.01,-92.10,-242.41,-5670.21,-5664.14,-210.19,-663.01,-667.58,-4.52,1111,1111,1111,1111
7613,1754,-1444,15365,-17.82,86.73,-35.12,455.84,-49.39,1284.32,-111.93,-93.29,-242.40,-5670.21,-5664.14,-210.19,-667.45,-661.58,-3.82,1111,1111,1111,1111
7619,1757,-1394,15392,-18.36,81.67,-34.85,455.84,-49.39,1284.32,-112.30,-92.95,-242.46,-5670.21,-5664.14,-210.19,-664.64,-670.76,-4.27,1111,1111,1111,1111
7625,1790,-1390,15474,-17.29,85.66,-33.52,455.84,-49.39,1284.32,-112.83,-92.60,-242.59,-5670.21,-5664.14,-210.19,-663.79,-670.60,-4.62,1111,1111,1111,1111
7631,1717,-1377,15411,-20.48,89.12,-35.12,455.84,-49.39,1284.32,-111.43,-92.10,-242.64,-5670.21,-5664.14,-208.90,-675.79,-671.74,-4.39,1111,1111,1111,1111
7639,1766,-1395,15386,-20.48,84.33,-31.92,455.84,-49.39,1284.32,-111.98,-92.56,-242.63,-5670.21,-5664.14,-208.90,-663.84,-665.93,-3.98,1111,1111,1111,1111
7645,1748,-1395,15443,-19.69,84.86,-32.99,455.84,-49.39,1284.32,-112.06,-92.60,-242.49,-5670.21,-5664.14,-208.90,-666.46,-668.30,-3.11,1111,1111,1111,1111
7651,1729,-1370,15396,-21.02,84.86,-33.79,455.84,-49.39,1284.32,-111.44,-91.71,-242.50,-5670.21,-5664.14,-208.90,-670.54,-673.73,-4.06,1111,1111,1111,1111
7657,1761,-1384,15443,-18.89,89.12,-33.79,455.84,-49.39,1284.32,-111.86,-91.99,-242.45,-5670.21,-5664.14,-208.90,-664.29,-666.86,-3.70,1111,1111,1111,1111
7664,1783,-1414,15425,-19.42,86.99,-33.79,455.84,-49.39,1284.32,-112.32,-92.73,-242.46,-5670.21,-5664.14,-208.90,-664.34,-664.45,-4.11,1111,1111,1111,1111
7669,1732,-1364,15473,-19.42,88.59,-35.38,455.84,-49.39,1284.32,-111.54,-91.80,-242.60,-5670.21,-5664.14,-208.90,-672.23,-674.80,-4.99,1111,1111,1111,1111
7676,1728,-1363,15454,-18.36,86.99,-35.12,455.84,-49.39,1284.32,-111.01,-91.08,-242.46,-5670.21,-5664.14,-208.90,-670.12,-672.82,-3.22,1111,1111,1111,1111
7683,1772,-1378,15517,-17.03,88.06,-36.18,455.84,-49.39,1284.32,-111.51,-91.37,-242.44,-5670.21,-5664.14,-208.90,-663.88,-666.93,-3.92,1111,1111,1111,1111
7689,1760,-1378,15488,-18.36,88.32,-32.99,454.26,-49.39,1284.32,-111.94,-91.57,-242.34,-5670.21,-5664.14,-208.90,-664.62,-667.62,-3.44,1111,1111,1111,1111
7695,1790,-1387,15423,-23.14,85.66,-35.38,454.26,-49.39,1284.32,-112.48,-91.89,-242.39,-5670.21,-5664.14,-208.90,-663.41,-666.56,-4.36,1111,1111,1111,1111
7701,1758,-1390,15494,-19.42,88.59,-37.51,454.26,-49.39,1284.32,-112.41,-92.04,-242.22,-5670.21,-5664.14,-208.90,-667.30,-667.81,-3.00,1111,1111,1111,1111
7707,1725,-1437,15452,-18.09,86.46,-34.32,454.26,-49.39,1284.32,-111.56,-93.10,-242.17,-5670.21,-5664.14,-208.90,-672.56,-661.60,-3.68,1111,1111,1111,1111
7714,1760,-1414,15462,-17.82,87.79,-34.58,454.26,-49.39,1284.32,-111.98,-93.26,-242.18,-5670.21,-5664.14,-208.90,-664.63,-667.62,-4.04,1111,1111,1111,1111
7719,1726,-1388,15405,-17.56,88.06,-35.38,454.26,-49.39,1284.32,-111.26,-92.47,-242.26,-5670.21,-5664.14,-208.90,-671.78,-673.74,-4.52,1111,1111,1111,1111
7727,1782,-1384,15416,-18.36,87.52,-34.05,454.26,-49.39,1284.32,-111.88,-92.39,-242.38,-5670.21,-5664.14,-208.90,-663.36,-669.11,-4.74,1111,1111,1111,1111
7733,1750,-1405,15437,-18.09,86.73,-34.85,454.26,-49.39,1284.32,-112.01,-92.89,-242.27,-5670.21,-5664.14,-208.90,-666.21,-665.47,-3.29,1111,1111,1111,1111
7739,1737,-1407,15492,-17.29,85.13,-36.45,454.26,-49.39,1284.32,-111.21,-92.77,-242.13,-5670.21,-5664.14,-208.90,-671.80,-669.31,-3.20,1111,1111,1111,1111
7745,1744,-1363,15529,-16.76,86.46,-35.65,454.26,-49.39,1284.32,-110.98,-91.78,-242.32,-5670.21,-5664.14,-208.90,-668.60,-675.09,-5.20,1111,1111,1111,1111
7751,1804,-1372,15389,-18.36,87.52,-36.45,454.26,-49.39,1284.32,-111.69,-91.83,-242.48,-5670.21,-5664.14,-208.90,-663.04,-668.37,-4.95,1111,1111,1111,1111
7757,1751,-1380,15431,-19.95,88.32,-35.91,454.26,-49.39,1284.32,-111.97,-91.90,-242.40,-5670.21,-5664.14,-208.90,-665.12,-668.22,-3.51,1111,1111,1111,1111
7764,1760,-1369,15461,-18.36,88.85,-36.45,454.26,-49.39,1284.32,-112.25,-91.41,-242.42,-5670.21,-5664.14,-208.90,-665.38,-671.52,-4.15,1111,1111,1111,1111
7770,1776,-1316,15463,-18.89,89.12,-32.99,454.26,-49.39,1284.32,-112.34,-90.54,-242.61,-5670.21,-5664.14,-208.90,-666.39,-674.48,-5.22,1111,1111,1111,1111
7777,1794,-1354,15511,-17.82,89.39,-33.52,454.26,-51.01,1284.32,-112.92,-90.70,-242.56,-5670.21,-5664.14,-208.90,-663.59,-667.92,-3.78,1111,1111,1111,1111
7783,1754,-1386,15416,-18.89,83.53,-34.58,454.26,-51.01,1284.32,-112.71,-91.75,-242.38,-5670.21,-5664.14,-208.90,-668.20,-662.17,-2.91,1111,1111,1111,1111
7789,1742,-1392,15474,-20.48,86.99,-36.45,454.26,-49.39,1284.32,-111.78,-92.24,-242.14,-5670.21,-5664.14,-208.90,-672.35,-665.80,-2.60,1111,1111,1111,1111
7795,1711,-1387,15484,-19.42,86.99,-32.72,454.26,-49.39,1284.32,-110.41,-92.04,-242.09,-5670.21,-5664.14,-208.90,-676.13,-669.99,-3.66,1111,1111,1111,1111
7802,1777,-1419,15511,-19.15,86.73,-33.52,455.84,-51.01,1284.32,-110.89,-92.80,-242.08,-5670.21,-5664.14,-208.90,-664.40,-664.31,-3.95,1111,1111,1111,1111
7808,1788,-1396,15453,-18.89,83.27,-36.98,455.84,-51.01,1284.32,-111.50,-92.93,-242.17,-5670.21,-5664.14,-208.90,-663.10,-667.69,-4.56,1111,1111,1111,1111
7815,1754,-1373,15481,-17.82,85.93,-31.13,455.84,-51.01,1284.32,-111.70,-92.18,-242.19,-5670.21,-5664.14,-208.90,-665.88,-672.80,-4.10,1111,1111,1111,1111
7821,1736,-1417,15415,-19.69,88.32,-34.85,455.84,-51.01,1284.32,-111.46,-93.19,-242.06,-5670.21,-5664.14,-208.90,-668.63,-661.83,-3.14,1111,1111,1111,1111
7827,1751,-1402,15440,-17.82,87.26,-32.99,457.41,-51.01,1284.32,-111.84,-93.37,-241.94,-5670.21,-5664.14,-208.90,-664.86,-667.47,-3.25,1111,1111,1111,1111
7833,1778,-1388,15536,-17.29,86.19,-34.32,457.41,-51.01,1284.32,-112.21,-92.84,-242.01,-5670.21,-5664.14,-208.90,-664.69,-671.88,-4.46,1111,1111,1111,1111
7840,1724,-1385,15510,-19.15,88.59,-32.19,457.41,-51.01,1284.32,-110.79,-92.34,-241.89,-5670.21,-5664.14,-208.90,-675.11,-671.45,-3.27,1111,1111,1111,1111
7845,1679,-1396,15415,-21.81,88.59,-31.66,457.41,-51.01,1284.32,-109.44,-92.96,-241.73,-5670.21,-5664.14,-208.90,-676.11,-664.52,-2.87,1111,1111,1111,1111
7853,1782,-1384,15442,-19.42,90.72,-35.38,457.41,-49.39,1284.32,-110.10,-92.83,-241.91,-5670.21,-5664.14,-208.90,-663.43,-669.30,-4.97,1111,1111,1111,1111
7859,1790,-1383,15472,-19.15,87.52,-33.79,457.41,-49.39,1284.32,-110.69,-92.68,-242.05,-5670.21,-5664.14,-208.90,-663.32,-669.54,-4.89,1111,1111,1111,1111
7865,1766,-1369,15514,-20.48,85.93,-35.65,457.41,-49.39,1284.32,-111.13,-92.05,-242.20,-5670.21,-5664.14,-208.90,-664.64,-672.21,-4.87,1111,1111,1111,1111
7871,1810,-1386,15357,-19.42,86.19,-33.52,457.41,-49.39,1284.32,-111.74,-92.26,-242.31,-5670.21,-5664.14,-208.90,-663.02,-667.20,-4.72,1111,1111,1111,1111
7877,1743,-1315,15444,-18.36,87.26,-36.45,457.41,-49.39,1284.32,-111.42,-91.08,-242.57,-5670.21,-5664.14,-208.90,-668.88,-675.55,-5.53,1111,1111,1111,1111
7884,1732,-1376,15462,-17.29,88.59,-35.12,457.41,-49.39,1284.32,-111.18,-91.76,-242.25,-5670.21,-5664.14,-208.90,-668.56,-664.59,-2.08,1111,1111,1111,1111
7890,1791,-1379,15479,-18.09,84.86,-33.25,457.41,-49.39,1284.32,-111.86,-91.86,-242.32,-5670.21,-5664.14,-208.90,-663.17,-668.11,-4.39,1111,1111,1111,1111
7897,1774,-1363,15508,-18.89,90.19,-36.98,457.41,-49.39,1284.32,-112.21,-91.42,-242.38,-5670.21,-5664.14,-208.90,-664.68,-671.57,-4.42,1111,1111,1111,1111
7903,1715,-1358,15367,-19.15,87.26,-32.72,457.41,-49.39,1284.32,-110.99,-91.27,-242.09,-5670.21,-5664.14,-208.90,-674.00,-669.55,-2.32,1111,1111,1111,1111
7909,1753,-1415,15448,-21.02,86.99,-32.72,457.41,-49.39,1284.32,-111.10,-92.23,-242.03,-5670.21,-5664.14,-208.90,-666.35,-662.43,-3.57,1111,1111,1111,1111
7916,1743,-1330,15511,-18.09,88.32,-34.85,455.84,-49.39,1284.32,-110.85,-91.08,-242.26,-5670.21,-5664.14,-208.90,-668.61,-675.39,-5.33,1111,1111,1111,1111
7921,1738,-1437,15445,-19.42,87.52,-35.65,455.84,-49.39,1284.32,-110.67,-92.21,-242.23,-5670.21,-5664.14,-208.90,-668.29,-661.29,-3.83,1111,1111,1111,1111
7928,1777,-1387,15422,-20.48,89.92,-33.52,455.84,-49.39,1284.32,-111.30,-92.36,-242.32,-5670.21,-5664.14,-208.90,-663.43,-667.78,-4.50,1111,1111,1111,1111
7934,1772,-1382,15443,-18.89,88.85,-36.45,455.84,-49.39,1284.32,-111.84,-92.25,-242.40,-5670.21,-5664.14,-208.90,-663.70,-669.30,-4.54,1111,1111,1111,1111
7941,1743,-1409,15420,-19.42,87.26,-34.32,455.84,-49.39,1284.32,-111.76,-93.15,-242.24,-5670.21,-5664.14,-208.90,-667.45,-663.41,-3.11,1111,1111,1111,1111
7947,1761,-1388,15509,-22.35,88.59,-36.18,455.84,-49.39,1284.32,-111.86,-92.49,-242.36,-5670.21,-5664.14,-208.90,-666.33,-672.98,-4.78,1111,1111,1111,1111
7953,1767,-1381,15472,-21.02,84.60,-38.57,455.84,-49.39,1284.32,-112.28,-92.08,-242.44,-5670.21,-5664.14,-208.90,-664.54,-670.94,-4.48,1111,1111,1111,1111
7959,1770,-1376,15438,-21.81,91.52,-35.38,455.84,-49.39,1284.32,-112.65,-91.91,-242.45,-5670.21,-5664.14,-208.90,-664.52,-669.81,-4.13,1111,1111,1111,1111
7966,1765,-1380,15410,-18.09,85.93,-34.85,455.84,-49.39,1284.32,-113.01,-92.00,-242.37,-5670.21,-5664.14,-208.90,-664.82,-668.15,-3.53,1111,1111,1111,1111
7971,1776,-1383,15475,-18.09,86.73,-34.32,455.84,-49.39,1284.32,-113.27,-91.88,-242.31,-5670.21,-5664.14,-208.90,-665.12,-669.42,-3.62,1111,1111,1111,1111
7979,1789,-1401,15408,-16.49,88.32,-34.58,455.84,-49.39,1284.32,-113.68,-92.49,-242.29,-5670.21,-5664.14,-208.90,-664.47,-665.17,-3.90,1111,1111,1111,1111
7985,1767,-1376,15359,-19.15,88.85,-34.58,455.84,-49.39,1284.32,-113.72,-92.01,-242.29,-5670.21,-5664.14,-208.90,-666.52,-671.60,-4.01,1111,1111,1111,1111
7991,1774,-1447,15459,-16.76,86.19,-32.99,455.84,-49.39,1284.32,-113.36,-93.28,-242.24,-5670.21,-5664.14,-208.90,-668.88,-661.31,-3.74,1111,1111,1111,1111
7997,1739,-1442,15439,-20.48,89.12,-33.79,455.84,-49.39,1284.32,-112.31,-94.15,-242.20,-5670.21,-5664.14,-208.90,-673.77,-662.74,-3.69,1111,1111,1111,1111
8003,1733,-1398,15434,-21.28,86.19,-34.58,455.84,-49.39,1284.32,-111.52,-93.18,-242.39,-5670.21,-5664.14,-208.90,-671.84,-674.39,-5.19,1111,1111,1111,1111
8009,1797,-1385,15481,-17.56,83.53,-32.72,455.84,-49.39,1284.32,-112.06,-92.81,-242.55,-5670.21,-5664.14,-208.90,-663.53,-670.91,-5.06,1111,1111,1111,1111
8016,1789,-1363,15517,-18.09,88.85,-35.38,455.84,-49.39,1284.32,-112.36,-92.00,-242.77,-5670.21,-5664.14,-208.90,-665.21,-673.28,-5.32,1111,1111,1111,1111
8022,1776,-1374,15466,-17.56,86.99,-35.12,455.84,-49.39,1284.32,-112.76,-91.76,-242.79,-5670.21,-5664.14,-208.90,-664.28,-670.29,-4.21,1111,1111,1111,1111
8029,1735,-1390,15480,-18.89,88.06,-33.52,455.84,-49.39,1284.32,-111.50,-92.20,-242.55,-5670.21,-5664.14,-208.90,-674.31,-666.07,-2.65,1111,1111,1111,1111
8034,1766,-1364,15497,-19.95,84.86,-33.79,455.84,-49.39,1284.32,-111.81,-91.63,-242.64,-5670.21,-5664.14,-208.90,-664.99,-672.42,-4.60,1111,1111,1111,1111
8041,1788,-1419,15512,-19.15,87.52,-33.25,454.26,-51.01,1284.32,-112.17,-92.57,-242.60,-5670.21,-5664.14,-208.90,-665.01,-663.51,-3.85,1111,1111,1111,1111
8047,1764,-1347,15435,-18.09,88.59,-35.12,454.26,-51.01,1284.32,-112.27,-91.75,-242.73,-5670.21,-5664.14,-208.90,-666.26,-673.94,-4.92,1111,1111,1111,1111
8053,1724,-1359,15527,-18.09,86.73,-35.91,454.26,-51.01,1284.32,-110.93,-91.09,-242.67,-5670.21,-5664.14,-208.90,-674.85,-672.56,-3.67,1111,1111,1111,1111
8059,1734,-1410,15454,-19.15,89.12,-35.65,454.26,-51.01,1284.32,-110.76,-92.17,-242.57,-5670.21,-5664.14,-208.90,-668.23,-661.68,-3.39,1111,1111,1111,1111
8067,1784,-1397,15445,-19.95,89.39,-33.25,454.26,-51.01,1284.32,-111.37,-92.57,-242.61,-5670.21,-5664.14,-208.90,-663.58,-666.26,-4.29,1111,1111,1111,1111
8072,1711,-1331,15471,-18.09,86.46,-35.12,454.26,-51.01,1284.32,-110.62,-91.55,-242.79,-5670.21,-5664.14,-208.90,-672.06,-675.35,-5.21,1111,1111,1111,1111
8079,1724,-1355,15482,-18.36,88.59,-34.32,454.26,-49.39,1284.32,-110.40,-90.75,-242.71,-5670.21,-5664.14,-208.90,-668.42,-673.42,-3.61,1111,1111,1111,1111
8084,1739,-1356,15468,-19.15,88.32,-33.52,454.26,-49.39,1284.32,-110.79,-90.81,-242.58,-5670.21,-5664.14,-208.90,-664.66,-668.44,-3.24,1111,1111,1111,1111
8091,1800,-1351,15468,-17.03,84.07,-35.65,454.26,-49.39,1284.32,-111.53,-90.77,-242.71,-5670.21,-5664.14,-208.90,-663.00,-669.03,-4.76,1111,1111,1111,1111
8097,1770,-1371,15397,-18.09,87.26,-33.52,454.26,-49.39,1284.32,-112.00,-91.19,-242.69,-5670.21,-5664.14,-208.90,-663.94,-665.99,-3.91,1111,1111,1111,1111
8104,1759,-1377,15470,-18.36,89.12,-34.85,454.26,-49.39,1282.38,-112.28,-91.60,-242.52,-5670.21,-5664.14,-208.90,-665.37,-666.41,-3.10,1111,1111,1111,1111
8110,1775,-1356,15548,-20.22,88.06,-34.32,454.26,-49.39,1282.38,-112.43,-90.94,-242.59,-5670.21,-5664.14,-208.90,-665.92,-673.14,-4.46,1111,1111,1111,1111
8117,1768,-1370,15406,-21.02,87.79,-34.58,454.26,-49.39,1282.38,-112.85,-91.41,-242.49,-5670.21,-5664.14,-208.90,-664.52,-666.09,-3.48,1111,1111,1111,1111
8122,1798,-1377,15499,-18.09,89.12,-35.65,454.26,-49.39,1282.38,-113.34,-91.47,-242.52,-5670.21,-5664.14,-208.90,-663.66,-668.33,-4.21,1111,1111,1111,1111
8129,1763,-1347,15470,-15.70,87.79,-35.91,454.26,-49.39,1282.38,-112.96,-90.47,-242.57,-5670.21,-5664.14,-208.90,-669.02,-674.58,-4.37,1111,1111,1111,1111
8135,1790,-1381,15425,-20.48,87.79,-34.05,454.26,-49.39,1282.38,-113.30,-91.13,-242.53,-5670.21,-5664.14,-208.90,-664.62,-664.38,-3.75,1111,1111,1111,1111
8141,1780,-1368,15342,-20.48,87.79,-32.99,454.26,-49.39,1284.32,-113.80,-91.49,-242.49,-5670.21,-5664.14,-208.90,-664.02,-666.75,-3.79,1111,1111,1111,1111
8147,1745,-1353,15482,-17.29,84.86,-36.18,454.26,-49.39,1284.32,-112.70,-90.75,-242.56,-5670.21,-5664.14,-208.90,-674.10,-673.62,-4.52,1111,1111,1111,1111
8155,1768,-1373,15457,-19.69,85.40,-35.38,454.26,-49.39,1284.32,-112.95,-91.31,-242.40,-5670.21,-5664.14,-208.90,-665.42,-665.56,-3.08,1111,1111,1111,1111
8160,1777,-1356,15443,-17.29,89.39,-36.45,454.26,-49.39,1284.32,-113.26,-90.92,-242.42,-5670.21,-5664.14,-208.90,-664.88,-671.33,-4.18,1111,1111,1111,1111
8167,1791,-1400,15462,-22.08,84.60,-34.32,454.26,-49.39,1284.32,-113.53,-91.82,-242.37,-5670.21,-5664.14,-208.90,-665.26,-663.48,-3.70,1111,1111,1111,1111
8173,1795,-1379,15535,-20.75,86.99,-34.85,454.26,-49.39,1284.32,-113.81,-91.49,-242.39,-5670.21,-5664.14,-208.90,-664.91,-670.87,-4.17,1111,1111,1111,1111
8179,1751,-1368,15491,-18.89,88.32,-34.85,454.26,-49.39,1284.32,-112.48,-90.96,-242.33,-5670.21,-5664.14,-208.90,-674.44,-671.75,-3.69,1111,1111,1111,1111
8185,1744,-1374,15448,-22.88,91.25,-33.25,454.26,-49.39,1284.32,-112.08,-91.50,-242.05,-5670.21,-5664.14,-208.90,-669.55,-665.22,-2.14,1111,1111,1111,1111
8193,1740,-1335,15450,-20.22,88.06,-34.58,454.26,-49.39,1284.32,-111.62,-90.35,-242.18,-5670.21,-5664.14,-208.90,-669.54,-675.09,-4.72,1111,1111,1111,1111
8198,1738,-1370,15466,-22.35,86.19,-34.32,454.26,-49.39,1284.32,-111.46,-91.12,-241.93,-5670.21,-5664.14,-208.90,-668.08,-663.73,-2.31,1111,1111,1111,1111
8205,1756,-1357,15449,-22.35,89.39,-35.12,452.68,-49.39,1284.32,-111.87,-90.85,-241.92,-5670.21,-5664.14,-208.90,-664.68,-670.32,-3.92,1111,1111,1111,1111
8211,1787,-1371,15445,-21.02,85.66,-35.12,452.68,-49.39,1284.32,-112.41,-91.10,-241.96,-5670.21,-5664.14,-208.90,-663.41,-667.20,-4.21,1111,1111,1111,1111
8217,1765,-1408,15442,-19.95,85.93,-36.45,452.68,-49.39,1284.32,-112.46,-92.16,-241.90,-5670.21,-5664.14,-208.90,-666.67,-662.60,-3.63,1111,1111,1111,1111
8223,1729,-1380,15538,-22.35,86.19,-35.65,452.68,-49.39,1284.32,-111.22,-91.59,-241.98,-5670.21,-5664.14,-208.90,-675.12,-672.44,-4.46,1111,1111,1111,1111
8229,1710,-1417,15445,-19.15,86.19,-38.04,452.68,-49.39,1284.32,-110.34,-92.74,-241.89,-5670.21,-5664.14,-208.90,-672.34,-661.85,-3.46,1111,1111,1111,1111
8236,1732,-1422,15446,-21.55,87.79,-35.12,452.68,-49.39,1284.32,-110.49,-93.42,-241.83,-5670.21,-5664.14,-208.90,-666.19,-664.09,-3.57,1111,1111,1111,1111
8243,1784,-1394,15393,-22.35,85.93,-36.45,452.68,-49.39,1284.32,-111.20,-93.21,-242.07,-5670.21,-5664.14,-208.90,-663.29,-669.64,-5.23,1111,1111,1111,1111
8249,1752,-1428,15508,-19.42,86.73,-35.65,452.68,-49.39,1284.32,-111.41,-93.57,-242.04,-5670.21,-5664.14,-208.90,-665.66,-666.14,-3.81,1111,1111,1111,1111
8255,1762,-1390,15437,-22.88,88.32,-34.32,452.68,-49.39,1284.32,-111.72,-92.86,-242.25,-5670.21,-5664.14,-208.90,-665.29,-672.54,-5.21,1111,1111,1111,1111
8261,1790,-1377,15437,-22.88,85.40,-34.58,452.68,-49.39,1284.32,-112.21,-92.47,-242.43,-5670.21,-5664.14,-208.90,-663.78,-671.10,-5.18,1111,1111,1111,1111
8267,1734,-1419,15452,-24.74,84.07,-34.05,452.68,-47.77,1284.32,-111.26,-93.14,-242.36,-5670.21,-5664.14,-208.90,-672.56,-664.71,-3.56,1111,1111,1111,1111
8273,1778,-1422,15447,-18.89,86.46,-32.19,452.68,-47.77,1284.32,-111.79,-93.24,-242.48,-5670.21,-5664.14,-208.90,-663.55,-667.84,-4.84,1111,1111,1111,1111
8281,1758,-1415,15478,-19.15,88.06,-33.25,452.68,-49.39,1284.32,-112.07,-93.19,-242.48,-5670.21,-5664.14,-208.90,-665.45,-668.78,-4.03,1111,1111,1111,1111
8287,1751,-1374,15522,-16.76,89.12,-34.85,452.68,-49.39,1284.32,-111.66,-92.17,-242.70,-5670.21,-5664.14,-208.90,-669.65,-675.24,-5.46,1111,1111,1111,1111
8293,1781,-1438,15458,-19.15,88.59,-34.32,452.68,-49.39,1284.32,-111.99,-93.14,-242.73,-5671.51,-5664.14,-208.90,-665.38,-663.25,-4.24,1111,1111,1111,1111
8299,1759,-1385,15465,-16.23,88.59,-34.85,452.68,-49.39,1284.32,-112.04,-92.38,-242.88,-5671.51,-5664.14,-208.90,-666.80,-673.57,-5.03,1111,1111,1111,1111
8306,1820,-1369,15440,-17.82,92.05,-35.91,452.68,-49.39,1284.32,-112.65,-92.08,-243.09,-5671.51,-5664.14,-208.90,-663.55,-670.33,-5.34,1111,1111,1111,1111
8311,1752,-1402,15382,-21.28,87.26,-33.52,452.68,-49.39,1284.32,-112.61,-92.79,-242.97,-5671.51,-5664.14,-208.90,-667.34,-663.99,-3.28,1111,1111,1111,1111
8318,1732,-1367,15388,-19.95,89.39,-35.91,452.68,-49.39,1282.38,-111.78,-91.75,-243.12,-5671.51,-5664.14,-208.90,-671.86,-674.54,-4.96,1111,1111,1111,1111
8325,1733,-1386,15417,-20.22,89.12,-34.32,452.68,-49.39,1282.38,-111.51,-92.23,-242.88,-5671.51,-5664.14,-208.90,-668.95,-665.52,-2.53,1111,1111,1111,1111
8331,1774,-1337,15441,-19.69,89.39,-36.18,452.68,-49.39,1282.38,-111.78,-91.40,-243.11,-5671.51,-5664.14,-208.90,-665.61,-673.58,-5.46,1111,1111,1111,1111
8337,1766,-1367,15397,-17.03,87.52,-33.25,452.68,-49.39,1282.38,-112.26,-91.46,-243.10,-5671.51,-5664.14,-208.90,-663.98,-668.35,-4.05,1111,1111,1111,1111
8344,1774,-1379,15487,-19.95,86.46,-33.25,452.68,-49.39,1282.38,-112.74,-91.61,-243.04,-5670.21,-5664.14,-208.90,-664.29,-667.89,-3.72,1111,1111,1111,1111
8349,1783,-1389,15475,-20.22,86.19,-33.79,452.68,-49.39,1282.38,-113.14,-91.91,-243.00,-5670.21,-5664.14,-208.90,-664.24,-666.69,-3.83,1111,1111,1111,1111
8356,1785,-1367,15539,-20.22,88.32,-33.79,452.68,-49.39,1282.38,-113.26,-91.13,-243.08,-5670.21,-5664.14,-208.90,-666.17,-673.13,-4.60,1111,1111,1111,1111
8361,1787,-1315,15504,-22.35,88.32,-31.92,452.68,-49.39,1282.38,-113.23,-90.24,-243.25,-5670.21,-5664.14,-208.90,-667.03,-674.76,-5.23,1111,1111,1111,1111
8369,1773,-1378,15390,-21.55,87.26,-35.65,452.68,-49.39,1282.38,-113.36,-91.23,-243.14,-5670.21,-5664.14,-208.90,-666.08,-663.15,-3.50,1111,1111,1111,1111
8375,1730,-1372,15447,-20.48,87.79,-36.45,452.68,-49.39,1282.38,-111.97,-91.36,-243.04,-5670.21,-5664.14,-208.90,-676.00,-667.91,-3.43,1111,1111,1111,1111
8381,1704,-1414,15457,-20.75,85.66,-35.91,454.26,-49.39,1282.38,-110.72,-92.47,-242.97,-5670.21,-5664.14,-208.90,-674.22,-662.29,-3.67,1111,1111,1111,1111
8387,1676,-1443,15484,-21.02,88.06,-33.79,454.26,-49.39,1282.38,-109.51,-93.36,-242.95,-5670.21,-5664.14,-208.90,-675.34,-662.55,-3.99,1111,1111,1111,1111
8394,1717,-1415,15392,-18.36,89.65,-32.19,454.26,-49.39,1282.38,-109.87,-93.83,-242.87,-5670.21,-5664.14,-208.90,-665.28,-665.95,-3.61,1111,1111,1111,1111
8399,1787,-1459,15453,-19.15,86.46,-34.58,454.26,-49.39,1282.38,-110.38,-94.36,-242.97,-5670.21,-5664.14,-208.90,-663.85,-664.89,-4.76,1111,1111,1111,1111
8407,1747,-1435,15432,-18.62,86.99,-35.38,454.26,-49.39,1282.38,-110.90,-94.52,-243.05,-5670.21,-5664.14,-208.90,-664.17,-667.43,-4.54,1111,1111,1111,1111
8413,1760,-1396,15390,-18.89,85.66,-35.91,454.26,-49.39,1282.38,-111.26,-93.92,-243.26,-5670.21,-5664.14,-208.90,-664.75,-672.38,-5.53,1111,1111,1111,1111
8419,1798,-1412,15465,-17.82,88.32,-32.72,454.26,-49.39,1282.38,-111.89,-93.75,-243.44,-5670.21,-5664.14,-208.90,-663.33,-669.41,-5.14,1111,1111,1111,1111
8425,1712,-1359,15461,-16.76,88.06,-34.05,454.26,-49.39,1282.38,-110.99,-92.75,-243.68,-5670.21,-5664.14,-208.90,-672.96,-675.09,-5.76,1111,1111,1111,1111
8431,1783,-1387,15384,-20.48,86.99,-36.71,454.26,-49.39,1282.38,-111.66,-92.76,-243.82,-5670.21,-5664.14,-208.90,-663.19,-668.48,-5.01,1111,1111,1111,1111
8437,1795,-1383,15509,-19.15,83.00,-34.32,454.26,-49.39,1282.38,-112.20,-92.47,-243.95,-5670.21,-5664.14,-208.90,-663.46,-670.50,-5.03,1111,1111,1111,1111
8444,1764,-1401,15497,-17.29,84.60,-33.79,454.26,-49.39,1282.38,-112.49,-92.70,-243.82,-5671.51,-5664.14,-208.90,-665.51,-667.33,-3.46,1111,1111,1111,1111
8450,1792,-1394,15435,-15.70,87.26,-35.12,454.26,-49.39,1282.38,-113.01,-92.68,-243.89,-5671.51,-5664.14,-208.90,-663.60,-668.69,-4.71,1111,1111,1111,1111
8457,1733,-1379,15509,-19.15,88.85,-34.05,454.26,-49.39,1282.38,-111.60,-91.92,-243.98,-5671.51,-5664.14,-208.90,-675.13,-672.99,-4.72,1111,1111,1111,1111
8463,1744,-1460,15416,-18.62,87.26,-35.12,454.26,-49.39,1282.38,-111.36,-93.08,-243.98,-5671.51,-5664.14,-208.90,-668.82,-661.03,-4.18,1111,1111,1111,1111
8469,1666,-1423,15418,-18.09,89.12,-34.58,454.26,-49.39,1282.38,-109.55,-93.61,-244.03,-5671.51,-5664.14,-208.90,-677.51,-665.49,-4.49,1111,1111,1111,1111
8475,1695,-1417,15500,-17.03,86.99,-34.32,454.26,-49.39,1282.38,-108.64,-93.59,-243.83,-5671.51,-5664.14,-208.90,-673.46,-668.62,-2.89,1111,1111,1111,1111
8482,1762,-1404,15441,-15.16,86.99,-35.12,454.26,-49.39,1282.38,-109.33,-93.53,-243.98,-5671.51,-5664.14,-208.90,-663.52,-668.77,-5.10,1111,1111,1111,1111
8487,1745,-1379,15373,-17.29,86.46,-35.91,454.26,-49.39,1282.38,-109.84,-93.16,-244.14,-5671.51,-5664.14,-208.90,-664.08,-670.91,-5.22,1111,1111,1111,1111
8495,1738,-1369,15348,-17.82,85.66,-35.12,454.26,-49.39,1282.38,-110.38,-92.64,-244.28,-5670.21,-5664.14,-208.90,-664.24,-671.45,-5.04,1111,1111,1111,1111
8501,1734,-1355,15525,-19.15,86.99,-32.99,454.26,-49.39,1282.38,-110.27,-91.71,-244.40,-5670.21,-5664.14,-208.90,-667.95,-674.73,-5.05,1111,1111,1111,1111
8507,1795,-1296,15384,-21.55,88.32,-34.58,454.26,-49.39,1282.38,-110.76,-91.05,-244.65,-5670.21,-5664.14,-208.90,-664.36,-672.52,-5.66,1111,1111,1111,1111
8513,1748,-1330,15417,-19.15,84.33,-33.52,454.26,-49.39,1282.38,-111.16,-90.57,-244.67,-5670.21,-5664.14,-208.90,-664.52,-671.89,-4.41,1111,1111,1111,1111
8520,1777,-1313,15445,-19.42,88.85,-33.25,454.26,-49.39,1282.38,-111.66,-90.05,-244.77,-5670.21,-5664.14,-208.90,-664.14,-671.90,-4.88,1111,1111,1111,1111
8525,1802,-1356,15422,-18.09,85.66,-36.98,454.26,-49.39,1282.38,-112.22,-90.41,-244.81,-5670.21,-5664.14,-208.90,-663.28,-666.50,-4.59,1111,1111,1111,1111
8532,1787,-1403,15412,-20.75,88.85,-37.24,454.26,-49.39,1282.38,-112.49,-91.42,-244.81,-5670.21,-5664.14,-208.90,-665.42,-662.94,-4.31,1111,1111,1111,1111
8538,1690,-1348,15540,-21.28,85.40,-39.37,454.26,-49.39,1282.38,-111.01,-91.02,-244.94,-5670.21,-5664.14,-208.90,-676.86,-671.37,-5.20,1111,1111,1111,1111
8545,1774,-1374,15480,-17.82,86.46,-36.18,454.26,-49.39,1282.38,-111.62,-91.42,-244.93,-5670.21,-5664.14,-208.90,-663.69,-666.55,-4.25,1111,1111,1111,1111
8551,1786,-1381,15459,-21.55,89.39,-36.71,454.26,-49.39,1282.38,-112.15,-91.75,-244.96,-5670.21,-5664.14,-208.90,-663.62,-666.59,-4.50,1111,1111,1111,1111
8558,1711,-1448,15481,-23.68,84.86,-34.32,454.26,-49.39,1282.38,-111.10,-93.06,-244.92,-5670.21,-5664.14,-208.90,-672.95,-661.15,-4.11,1111,1111,1111,1111
8563,1728,-1379,15416,-18.36,88.32,-34.32,454.26,-49.39,1282.38,-110.99,-92.37,-244.91,-5670.21,-5664.14,-208.90,-667.86,-673.10,-4.26,1111,1111,1111,1111
8570,1729,-1403,15412,-19.69,86.73,-35.91,455.84,-49.39,1282.38,-110.98,-93.24,-244.71,-5670.21,-5664.14,-208.90,-667.15,-663.61,-3.16,1111,1111,1111,1111
8577,1779,-1454,15449,-19.95,84.86,-36.45,455.84,-49.39,1282.38,-111.33,-94.00,-244.75,-5670.21,-5664.14,-208.90,-664.77,-663.38,-4.61,1111,1111,1111,1111
8583,1779,-1402,15416,-22.61,86.99,-35.91,455.84,-49.39,1282.38,-111.94,-93.75,-244.92,-5670.21,-5664.14,-208.90,-663.56,-669.85,-5.26,1111,1111,1111,1111
8589,1738,-1386,15481,-18.89,89.39,-33.79,455.84,-49.39,1282.38,-111.41,-92.80,-245.03,-5670.21,-5664.14,-208.90,-670.46,-674.65,-5.06,1111,1111,1111,1111
8596,1813,-1421,15348,-19.42,84.60,-37.51,455.84,-49.39,1282.38,-112.09,-93.34,-245.17,-5670.21,-5664.14,-208.90,-663.27,-665.56,-5.10,1111,1111,1111,1111
8601,1781,-1390,15473,-18.89,85.66,-34.58,455.84,-49.39,1282.38,-112.52,-92.96,-245.27,-5670.21,-5664.14,-208.90,-664.11,-671.01,-4.99,1111,1111,1111,1111
8608,1770,-1422,15422,-16.49,87.52,-34.85,455.84,-49.39,1282.38,-112.79,-93.72,-245.20,-5670.21,-5664.14,-208.90,-665.36,-664.16,-4.00,1111,1111,1111,1111
8614,1827,-1450,15481,-18.09,88.85,-38.31,455.84,-49.39,1282.38,-113.29,-94.18,-245.32,-5670.21,-5664.14,-208.90,-663.55,-665.35,-5.12,1111,1111,1111,1111
8621,1761,-1440,15476,-17.29,85.66,-32.72,455.84,-49.39,1282.38,-112.73,-94.70,-245.15,-5670.21,-5664.14,-208.90,-670.05,-665.39,-3.43,1111,1111,1111,1111
8627,1715,-1413,15492,-21.55,86.19,-36.18,455.84,-49.39,1282.38,-111.36,-94.10,-245.35,-5670.21,-5664.14,-208.90,-675.86,-672.28,-5.60,1111,1111,1111,1111
8633,1747,-1378,15502,-18.89,86.19,-32.19,455.84,-49.39,1282.38,-111.16,-93.01,-245.54,-5670.21,-5664.14,-208.90,-668.23,-674.85,-5.56,1111,1111,1111,1111
8639,1727,-1357,15441,-19.15,86.99,-31.92,455.84,-49.39,1282.38,-110.85,-92.05,-245.63,-5670.21,-5664.14,-208.90,-669.19,-674.88,-4.98,1111,1111,1111,1111
8646,1718,-1377,15416,-16.23,86.46,-33.79,455.84,-49.39,1282.38,-110.65,-92.31,-245.23,-5670.21,-5664.14,-208.90,-668.21,-667.24,-2.19,1111,1111,1111,1111
8652,1714,-1376,15451,-19.15,84.86,-32.46,455.84,-49.39,1282.38,-110.26,-92.04,-244.93,-5670.21,-5664.14,-208.90,-669.74,-670.36,-2.37,1111,1111,1111,1111
8658,1737,-1395,15477,-17.03,88.32,-33.52,455.84,-49.39,1284.32,-110.59,-92.60,-244.77,-5670.21,-5664.14,-208.90,-665.25,-665.45,-3.41,1111,1111,1111,1111
8665,1708,-1402,15534,-16.23,85.93,-34.32,455.84,-49.39,1284.32,-109.49,-92.80,-244.52,-5670.21,-5664.14,-208.90,-674.42,-667.25,-2.64,1111,1111,1111,1111
8671,1731,-1364,15441,-15.70,88.59,-36.18,455.84,-49.39,1284.32,-109.85,-92.13,-244.63,-5670.21,-5664.14,-208.90,-665.15,-672.50,-4.91,1111,1111,1111,1111
8677,1744,-1388,15504,-18.36,83.80,-34.58,455.84,-49.39,1284.32,-110.34,-92.29,-244.57,-5670.21,-5664.14,-208.90,-664.03,-667.58,-3.92,1111,1111,1111,1111
8684,1702,-1407,15492,-17.56,84.07,-35.12,455.84,-49.39,1284.32,-109.35,-93.17,-244.30,-5670.21,-5664.14,-208.90,-672.90,-663.53,-2.69,1111,1111,1111,1111
8689,1751,-1386,15416,-15.96,85.13,-34.05,455.84,-49.39,1284.32,-109.92,-93.00,-244.40,-5670.21,-5664.14,-208.90,-663.53,-669.65,-4.90,1111,1111,1111,1111
8696,1776,-1381,15450,-17.56,86.73,-33.25,455.84,-49.39,1284.32,-110.61,-92.76,-244.55,-5670.21,-5664.14,-208.90,-663.42,-669.85,-5.09,1111,1111,1111,1111
8702,1779,-1375,15413,-19.69,84.33,-34.85,455.84,-49.39,1284.32,-111.20,-92.59,-244.67,-5670.21,-5664.14,-208.90,-663.28,-669.71,-5.10,1111,1111,1111,1111
8709,1798,-1377,15445,-19.42,88.06,-35.38,455.84,-49.39,1284.32,-111.85,-92.45,-244.82,-5670.21,-5664.14,-208.90,-663.24,-669.43,-5.17,1111,1111,1111,1111
8715,1784,-1390,15472,-19.42,85.66,-34.85,455.84,-49.39,1284.32,-112.39,-92.49,-244.86,-5670.21,-5664.14,-208.90,-663.47,-668.33,-4.58,1111,1111,1111,1111
8722,1800,-1376,15424,-15.43,88.85,-35.38,455.84,-49.39,1284.32,-113.01,-92.29,-244.99,-5670.21,-5664.14,-208.90,-663.34,-669.72,-5.06,1111,1111,1111,1111
8727,1788,-1357,15485,-15.70,85.40,-34.32,455.84,-49.39,1284.32,-113.26,-91.60,-245.10,-5670.21,-5664.14,-208.90,-665.21,-673.19,-5.07,1111,1111,1111,1111
8734,1835,-1370,15502,-17.82,88.59,-33.25,455.84,-49.39,1284.32,-113.91,-91.56,-245.21,-5670.21,-5664.14,-208.90,-663.00,-668.95,-4.97,1111,1111,1111,1111
8740,1749,-1337,15457,-18.89,85.13,-32.99,455.84,-49.39,1284.32,-113.02,-90.66,-245.27,-5670.21,-5664.14,-208.90,-672.55,-674.62,-4.76,1111,1111,1111,1111
8747,1760,-1400,15419,-17.29,85.66,-36.98,455.84,-49.39,1284.32,-112.79,-91.93,-245.15,-5670.21,-5664.14,-208.90,-668.13,-661.79,-3.73,1111,1111,1111,1111
8753,1779,-1343,15421,-18.89,87.52,-33.79,455.84,-49.39,1284.32,-113.06,-91.29,-245.25,-5670.21,-5664.14,-208.90,-665.09,-672.91,-4.99,1111,1111,1111,1111
8760,1736,-1324,15478,-17.56,84.86,-31.66,455.84,-49.39,1284.32,-112.07,-90.19,-245.33,-5670.21,-5664.14,-208.90,-672.52,-675.02,-4.84,1111,1111,1111,1111
8765,1815,-1374,15397,-19.69,89.12,-32.72,455.84,-49.39,1284.32,-112.58,-90.73,-245.36,-5670.21,-5664.14,-208.90,-663.67,-665.32,-4.56,1111,1111,1111,1111
8772,1749,-1359,15515,-21.28,91.52,-29.80,455.84,-49.39,1282.38,-112.05,-90.98,-244.88,-5670.21,-5664.14,-208.90,-669.99,-667.38,-1.54,1111,1111,1111,1111
8778,1732,-1373,15462,-21.02,86.19,-32.46,455.84,-49.39,1282.38,-111.48,-91.70,-244.53,-5670.21,-5664.14,-208.90,-670.76,-664.01,-1.99,1111,1111,1111,1111
8784,1688,-1325,15422,-20.22,88.06,-32.19,455.84,-49.39,1282.38,-110.12,-90.75,-244.64,-5670.21,-5664.14,-208.90,-674.78,-674.06,-4.90,1111,1111,1111,1111
8791,1673,-1321,15431,-22.08,85.66,-32.72,455.84,-49.39,1282.38,-108.90,-90.12,-244.55,-5670.21,-5664.14,-208.90,-675.24,-672.93,-3.72,1111,1111,1111,1111
8798,1741,-1319,15388,-21.55,84.33,-31.92,455.84,-49.39,1284.32,-109.61,-90.07,-244.55,-5670.21,-5664.14,-208.90,-663.44,-669.19,-4.28,1111,1111,1111,1111
8804,1717,-1406,15454,-20.22,84.60,-34.32,455.84,-49.39,1284.32,-109.47,-91.20,-244.47,-5670.21,-5664.14,-208.90,-668.20,-661.44,-3.72,1111,1111,1111,1111
8810,1766,-1411,15456,-22.88,88.59,-32.72,455.84,-49.39,1284.32,-109.89,-92.01,-244.47,-5670.21,-5664.14,-208.90,-664.70,-663.82,-4.30,1111,1111,1111,1111
8816,1782,-1426,15418,-20.22,89.65,-31.92,455.84,-49.39,1284.32,-110.33,-92.68,-244.51,-5670.21,-5664.14,-208.90,-664.35,-664.25,-4.54,1111,1111,1111,1111
8822,1795,-1425,15454,-21.55,86.19,-35.65,455.84,-49.39,1284.32,-110.95,-93.22,-244.61,-5670.21,-5664.14,-208.90,-663.57,-665.41,-4.85,1111,1111,1111,1111
8828,1759,-1420,15426,-22.35,89.92,-36.71,455.84,-49.39,1284.32,-111.37,-93.67,-244.63,-5670.21,-5664.14,-208.90,-664.32,-665.51,-4.41,1111,1111,1111,1111
8835,1803,-1389,15446,-21.02,87.79,-35.91,455.84,-49.39,1284.32,-111.99,-93.35,-244.84,-5670.21,-5664.14,-208.90,-663.43,-670.34,-5.52,1111,1111,1111,1111
8841,1772,-1383,15477,-22.08,89.39,-34.05,455.84,-49.39,1284.32,-112.25,-92.75,-244.96,-5670.21,-5664.14,-208.90,-665.27,-672.45,-5.12,1111,1111,1111,1111
8848,1765,-1372,15482,-19.69,90.98,-31.92,455.84,-49.39,1284.32,-112.37,-91.93,-245.03,-5670.21,-5664.14,-208.90,-666.31,-673.14,-4.71,1111,1111,1111,1111
8854,1751,-1379,15433,-20.48,87.79,-32.46,455.84,-49.39,1284.32,-112.42,-92.08,-244.80,-5670.21,-5664.14,-208.90,-666.59,-667.66,-2.83,1111,1111,1111,1111
8860,1685,-1380,15530,-23.94,88.85,-31.92,455.84,-49.39,1284.32,-110.57,-92.01,-244.88,-5670.21,-5664.14,-208.90,-677.68,-669.07,-4.76,1111,1111,1111,1111
8866,1778,-1363,15520,-22.61,86.46,-32.19,455.84,-49.39,1284.32,-111.10,-91.75,-244.96,-5670.21,-5664.14,-208.90,-663.68,-670.36,-4.81,1111,1111,1111,1111
8872,1686,-1336,15386,-20.22,86.19,-33.79,455.84,-49.39,1284.32,-109.77,-90.90,-244.98,-5670.21,-5664.14,-208.90,-674.74,-673.60,-4.48,1111,1111,1111,1111
8879,1710,-1416,15469,-21.28,89.12,-33.52,455.84,-49.39,1284.32,-109.45,-92.06,-244.88,-5670.21,-5664.14,-208.90,-669.34,-661.18,-3.63,1111,1111,1111,1111
8885,1744,-1362,15443,-21.55,88.32,-30.59,455.84,-49.39,1284.32,-110.03,-91.85,-244.90,-5670.21,-5664.14,-208.90,-663.89,-669.87,-4.45,1111,1111,1111,1111
8891,1782,-1409,15432,-19.95,90.19,-32.99,455.84,-49.39,1284.32,-110.52,-92.39,-244.94,-5670.21,-5664.14,-208.90,-664.00,-665.06,-4.60,1111,1111,1111,1111
8898,1758,-1404,15454,-19.95,89.65,-32.99,455.84,-49.39,1284.32,-111.06,-92.93,-244.91,-5670.21,-5665.44,-208.90,-664.22,-665.83,-4.16,1111,1111,1111,1111
8904,1699,-1373,15509,-20.48,86.99,-34.05,455.84,-49.39,1284.32,-109.86,-92.20,-244.99,-5670.21,-5665.44,-208.90,-674.99,-673.51,-4.85,1111,1111,1111,1111
8910,1702,-1414,15451,-18.36,89.92,-29.00,455.84,-49.39,1284.32,-109.33,-93.37,-244.75,-5670.21,-5665.44,-208.90,-670.28,-662.08,-2.92,1111,1111,1111,1111
8916,1765,-1368,15527,-22.35,88.59,-31.39,455.84,-49.39,1284.32,-109.74,-92.82,-244.91,-5670.21,-5665.44,-208.90,-664.61,-672.28,-5.36,1111,1111,1111,1111
8924,1788,-1426,15459,-19.42,85.93,-30.86,455.84,-49.39,1284.32,-110.37,-93.33,-244.97,-5670.21,-5665.44,-208.90,-663.58,-665.72,-4.72,1111,1111,1111,1111
8929,1764,-1436,15484,-19.69,87.26,-30.06,455.84,-49.39,1284.32,-110.79,-93.90,-244.97,-5670.21,-5665.44,-208.90,-664.36,-664.91,-4.28,1111,1111,1111,1111
8936,1747,-1443,15480,-19.42,88.85,-29.80,455.84,-49.39,1284.32,-111.04,-94.64,-244.88,-5670.21,-5665.44,-208.90,-665.73,-664.35,-3.83,1111,1111,1111,1111
8942,1763,-1413,15465,-21.28,90.98,-28.47,455.84,-49.39,1284.32,-111.38,-94.15,-245.00,-5670.21,-5665.44,-208.90,-664.82,-671.69,-5.12,1111,1111,1111,1111
8949,1756,-1398,15464,-18.89,88.85,-31.66,455.84,-49.39,1284.32,-111.59,-93.33,-245.15,-5670.21,-5664.14,-208.90,-665.89,-672.94,-5.15,1111,1111,1111,1111
8954,1733,-1384,15407,-16.23,87.79,-29.00,455.84,-49.39,1284.32,-111.41,-92.62,-245.12,-5670.21,-5664.14,-208.90,-668.24,-673.22,-4.12,1111,1111,1111,1111
8962,1739,-1374,15401,-16.76,87.26,-32.19,455.84,-49.39,1284.32,-111.61,-92.14,-245.04,-5670.21,-5664.14,-208.90,-665.89,-671.41,-3.88,1111,1111,1111,1111
8967,1754,-1386,15381,-18.89,85.40,-34.05,455.84,-49.39,1284.32,-112.02,-92.48,-244.96,-5670.21,-5664.14,-208.90,-664.33,-666.38,-3.85,1111,1111,1111,1111
8974,1764,-1396,15455,-19.69,88.59,-34.05,455.84,-49.39,1284.32,-112.42,-92.74,-244.88,-5670.21,-5664.14,-208.90,-664.66,-667.09,-3.82,1111,1111,1111,1111
8980,1735,-1394,15443,-17.03,88.85,-36.45,455.84,-49.39,1284.32,-111.62,-92.66,-244.68,-5670.21,-5664.14,-208.90,-672.27,-669.11,-2.99,1111,1111,1111,1111
8986,1776,-1408,15430,-19.42,86.73,-32.46,455.84,-49.39,1284.32,-112.16,-93.10,-244.68,-5670.21,-5664.14,-208.90,-663.83,-666.01,-4.32,1111,1111,1111,1111
8992,1722,-1420,15534,-21.55,88.59,-34.32,455.84,-49.39,1284.32,-110.77,-93.43,-244.59,-5670.21,-5664.14,-208.90,-676.13,-666.31,-3.71,1111,1111,1111,1111
8999,1751,-1408,15474,-18.09,88.06,-35.38,455.84,-49.39,1284.32,-111.26,-93.36,-244.60,-5670.21,-5664.14,-208.90,-664.41,-668.91,-4.34,1111,1111,1111,1111
9005,1801,-1429,15443,-17.29,88.06,-38.84,455.84,-49.39,1284.32,-111.82,-93.70,-244.72,-5670.21,-5664.14,-208.90,-663.39,-666.23,-5.09,1111,1111,1111,1111
9012,1753,-1378,15425,-19.15,89.39,-34.85,455.84,-49.39,1284.32,-111.85,-92.74,-244.91,-5670.21,-5664.14,-208.90,-666.84,-673.94,-5.34,1111,1111,1111,1111
9018,1717,-1396,15415,-17.03,86.46,-34.58,455.84,-49.39,1284.32,-110.81,-92.93,-244.68,-5670.21,-5664.14,-208.90,-673.83,-667.27,-2.84,1111,1111,1111,1111
9024,1751,-1376,15471,-19.15,83.80,-34.85,455.84,-49.39,1284.32,-111.18,-92.33,-244.76,-5670.21,-5664.14,-208.90,-664.96,-672.14,-4.78,1111,1111,1111,1111
9030,1802,-1400,15477,-19.95,86.19,-32.99,455.84,-49.39,1284.32,-111.76,-92.57,-244.84,-5670.21,-5664.14,-208.90,-663.20,-666.99,-4.78,1111,1111,1111,1111
9036,1754,-1381,15498,-19.69,87.52,-34.85,455.84,-49.39,1284.32,-111.90,-92.03,-244.79,-5670.21,-5664.14,-208.90,-666.20,-671.75,-4.03,1111,1111,1111,1111
9042,1774,-1424,15466,-20.48,85.66,-33.79,455.84,-49.39,1284.32,-112.12,-92.86,-244.75,-5670.21,-5664.14,-208.90,-665.50,-663.06,-4.05,1111,1111,1111,1111
9050,1758,-1424,15408,-19.69,85.66,-32.72,454.26,-49.39,1284.32,-112.31,-93.77,-244.67,-5670.21,-5664.14,-208.90,-665.96,-663.51,-3.84,1111,1111,1111,1111
9056,1771,-1411,15469,-18.09,85.66,-34.58,454.26,-49.39,1284.32,-112.63,-93.43,-244.74,-5670.21,-5664.14,-208.90,-664.84,-670.67,-4.77,1111,1111,1111,1111
9062,1762,-1442,15434,-14.90,85.66,-32.19,454.26,-51.01,1284.32,-112.57,-94.49,-244.63,-5670.21,-5664.14,-208.90,-667.25,-662.38,-3.68,1111,1111,1111,1111
9068,1771,-1378,15371,-15.70,86.73,-34.58,454.26,-51.01,1284.32,-112.74,-93.68,-244.83,-5670.21,-5664.14,-208.90,-665.82,-673.72,-5.58,1111,1111,1111,1111
9074,1773,-1432,15466,-18.36,87.52,-35.91,454.26,-51.01,1284.32,-112.95,-94.32,-244.75,-5670.21,-5664.14,-208.90,-665.61,-664.52,-3.83,1111,1111,1111,1111
9080,1773,-1410,15498,-17.56,86.46,-34.85,454.26,-51.01,1284.32,-112.98,-93.67,-244.81,-5670.21,-5664.14,-208.90,-666.63,-672.67,-4.72,1111,1111,1111,1111
9086,1785,-1397,15435,-20.22,86.73,-35.91,454.26,-49.39,1284.32,-113.37,-93.12,-244.98,-5670.21,-5664.14,-208.90,-664.63,-671.65,-5.27,1111,1111,1111,1111
9093,1747,-1346,15490,-16.49,85.13,-35.91,454.26,-49.39,1284.32,-112.63,-92.05,-245.23,-5670.21,-5664.14,-208.90,-671.64,-675.47,-5.98,1111,1111,1111,1111
9100,1777,-1382,15406,-17.03,86.99,-33.52,452.68,-51.01,1284.32,-113.16,-92.38,-245.16,-5670.21,-5664.14,-208.90,-663.99,-666.84,-3.95,1111,1111,1111,1111
9106,1777,-1344,15352,-16.49,88.59,-33.79,452.68,-51.01,1284.32,-113.44,-91.73,-245.25,-5670.21,-5664.14,-208.90,-665.04,-672.86,-4.98,1111,1111,1111,1111
9112,1848,-1321,15442,-18.89,86.99,-33.52,452.68,-51.01,1284.32,-114.01,-91.22,-245.45,-5670.21,-5664.14,-208.90,-663.46,-671.68,-5.54,1111,1111,1111,1111
9118,1716,-1295,15450,-15.43,87.52,-33.79,452.68,-51.01,1284.32,-112.85,-90.35,-245.63,-5670.21,-5664.14,-208.90,-674.39,-674.57,-5.54,1111,1111,1111,1111
9124,1718,-1303,15473,-19.69,89.12,-34.32,452.68,-49.39,1284.32,-111.60,-89.37,-245.74,-5670.21,-5664.14,-208.90,-674.15,-674.55,-5.08,1111,1111,1111,1111
9131,1770,-1269,15523,-18.36,88.32,-34.32,452.68,-49.39,1284.32,-111.71,-88.49,-245.87,-5670.21,-5664.14,-208.90,-666.35,-674.68,-5.23,1111,1111,1111,1111
9138,1735,-1285,15493,-19.95,86.46,-34.05,452.68,-49.39,1284.32,-111.43,-87.72,-245.60,-5670.21,-5664.14,-208.90,-668.70,-673.68,-2.86,1111,1111,1111,1111
9143,1702,-1313,15444,-20.75,85.13,-35.91,452.68,-49.39,1284.32,-110.50,-88.59,-245.27,-5670.21,-5664.14,-208.90,-673.20,-663.36,-2.17,1111,1111,1111,1111
9150,1584,-1358,15373,-20.75,89.92,-32.19,452.68,-49.39,1284.32,-108.67,-89.36,-245.30,-5670.21,-5664.14,-208.90,-677.32,-664.82,-4.55,1111,1111,1111,1111
9156,1607,-1329,15405,-22.08,88.85,-36.18,452.68,-49.39,1284.32,-107.07,-89.70,-245.26,-5670.21,-5664.14,-208.90,-677.93,-666.73,-4.12,1111,1111,1111,1111
9162,1549,-1322,15517,-15.70,84.07,-39.90,452.68,-49.39,1284.32,-105.25,-89.68,-245.39,-5670.21,-5664.14,-208.90,-678.33,-669.05,-5.12,1111,1111,1111,1111
9168,1501,-1427,15462,-14.10,80.08,-40.17,452.68,-49.39,1284.32,-103.91,-90.50,-245.46,-5670.21,-5664.14,-208.90,-676.56,-663.55,-4.87,1111,1111,1111,1111
9176,1704,-1452,15443,-16.76,83.00,-42.03,452.68,-49.39,1284.32,-104.23,-91.57,-245.56,-5670.21,-5664.14,-208.90,-666.09,-662.69,-4.91,1111,1111,1111,1111
9181,1855,-1424,15443,-18.09,83.27,-42.57,452.68,-49.39,1284.32,-104.88,-91.94,-245.75,-5670.21,-5664.14,-208.90,-663.63,-666.27,-5.70,1111,1111,1111,1111
9188,1938,-1422,15489,-21.02,80.34,-38.57,452.68,-49.39,1284.32,-105.67,-92.25,-245.98,-5670.21,-5664.14,-208.90,-663.26,-666.84,-5.75,1111,1111,1111,1111
9194,1910,-1410,15523,-18.89,88.85,-38.57,452.68,-49.39,1284.32,-106.30,-92.44,-246.18,-5670.21,-5664.14,-208.90,-663.46,-667.34,-5.81,1111,1111,1111,1111
9200,1902,-1450,15467,-21.02,90.45,-37.78,452.68,-49.39,1284.32,-107.02,-92.90,-246.40,-5670.21,-5664.14,-208.90,-663.66,-666.05,-5.70,1111,1111,1111,1111
9206,1850,-1456,15446,-22.08,88.06,-34.58,452.68,-49.39,1284.32,-107.62,-93.37,-246.55,-5670.21,-5664.14,-208.90,-663.67,-665.52,-5.48,1111,1111,1111,1111
9213,1798,-1410,15450,-25.27,86.99,-36.98,452.68,-49.39,1284.32,-108.36,-93.56,-246.75,-5670.21,-5664.14,-208.90,-663.25,-667.38,-5.64,1111,1111,1111,1111
9219,1694,-1295,15473,-21.02,89.39,-37.78,452.68,-49.39,1284.32,-108.00,-92.49,-247.05,-5670.21,-5664.14,-208.90,-669.78,-675.52,-6.51,1111,1111,1111,1111
9226,1667,-1292,15405,-16.76,89.65,-42.03,452.68,-49.39,1284.32,-107.46,-91.22,-247.35,-5670.21,-5664.14,-208.90,-670.58,-675.84,-6.33,1111,1111,1111,1111
9232,1702,-1418,15464,-18.89,85.66,-42.83,452.68,-49.39,1284.32,-107.57,-92.20,-247.34,-5670.21,-5664.14,-208.90,-666.78,-662.23,-4.54,1111,1111,1111,1111
9238,1751,-1448,15406,-14.37,83.53,-38.84,452.68,-49.39,1284.32,-108.03,-93.06,-247.43,-5670.21,-5664.14,-208.90,-664.87,-663.56,-5.12,1111,1111,1111,1111
9244,1768,-1396,15372,-9.58,80.61,-35.91,452.68,-49.39,1284.32,-108.70,-93.16,-247.56,-5670.21,-5664.14,-208.90,-663.06,-667.90,-5.47,1111,1111,1111,1111
9251,1738,-1511,15424,-3.72,88.59,-29.00,452.68,-47.77,1284.32,-108.73,-94.36,-247.59,-5670.21,-5664.14,-208.90,-667.25,-661.92,-4.83,1111,1111,1111,1111
9257,1792,-1589,15443,-1.60,88.06,-26.87,452.68,-47.77,1284.32,-108.86,-95.29,-247.66,-5670.21,-5664.14,-208.90,-666.48,-662.19,-5.06,1111,1111,1111,1111
9264,1820,-1476,15349,3.72,83.27,-23.41,452.68,-47.77,1284.32,-109.60,-95.51,-247.79,-5670.21,-5664.14,-208.90,-663.17,-666.99,-5.44,1111,1111,1111,1111
9270,1791,-1453,15362,6.65,85.40,-19.15,452.68,-47.77,1284.32,-110.21,-95.45,-247.90,-5670.21,-5664.14,-208.90,-663.15,-668.68,-5.40,1111,1111,1111,1111
9277,1819,-1430,15432,9.31,89.65,-16.23,452.68,-47.77,1284.32,-110.88,-95.01,-248.06,-5670.21,-5664.14,-208.90,-663.39,-670.72,-5.58,1111,1111,1111,1111
9282,1890,-1401,15493,9.31,86.19,-13.30,452.68,-47.77,1284.32,-111.48,-94.56,-248.20,-5670.21,-5664.14,-208.90,-663.22,-671.23,-5.60,1111,1111,1111,1111
9289,1946,-1333,15482,14.10,86.73,-9.31,452.68,-47.77,1284.32,-112.08,-93.82,-248.36,-5670.21,-5664.14,-208.90,-663.60,-672.63,-5.63,1111,1111,1111,1111
9295,1848,-1356,15462,17.82,88.85,-3.46,452.68,-47.77,1284.32,-112.51,-93.06,-248.44,-5670.21,-5664.14,-208.90,-664.13,-673.46,-5.30,1111,1111,1111,1111
9303,1702,-1390,15509,18.09,92.05,1.06,454.26,-47.77,1282.38,-110.66,-92.34,-248.36,-5670.21,-5664.14,-208.90,-677.20,-672.49,-4.25,1111,1111,1111,1111
9308,1660,-1270,15409,16.23,90.98,-0.53,454.26,-47.77,1282.38,-109.67,-91.15,-248.43,-5670.21,-5664.14,-208.90,-673.60,-676.45,-5.23,1111,1111,1111,1111
9315,1624,-1218,15403,7.71,88.32,-2.93,454.26,-47.77,1282.38,-108.53,-89.88,-248.53,-5670.21,-5664.14,-208.90,-673.95,-676.15,-5.29,1111,1111,1111,1111
9321,1662,-1050,15534,-0.53,84.60,-15.16,454.26,-47.77,1282.38,-107.96,-88.69,-248.72,-5670.21,-5664.14,-208.90,-671.13,-676.74,-6.06,1111,1111,1111,1111
9327,1627,-1063,15499,-13.57,81.14,-19.95,454.26,-47.77,1282.38,-107.20,-87.42,-248.95,-5670.21,-5664.14,-208.90,-671.78,-676.32,-6.10,1111,1111,1111,1111
9333,1313,-1278,15445,-26.87,86.19,-34.85,454.26,-47.77,1282.38,-105.54,-87.57,-249.13,-5670.21,-5664.14,-208.90,-678.48,-668.19,-5.97,1111,1111,1111,1111
9339,1413,-1307,15405,-36.45,85.66,-60.39,454.26,-47.77,1282.38,-103.74,-88.00,-249.42,-5670.21,-5664.14,-208.90,-678.45,-666.61,-6.54,1111,1111,1111,1111
9346,1816,-1218,15374,-47.09,81.14,-86.99,454.26,-47.77,1282.38,-104.43,-87.96,-249.90,-5670.21,-5664.14,-208.90,-663.37,-669.44,-8.00,1111,1111,1111,1111
9353,2000,-1190,15759,-50.01,69.43,-92.58,454.26,-47.77,1282.38,-105.30,-87.83,-250.53,-5670.21,-5664.14,-208.90,-662.91,-669.90,-8.55,1111,1111,1111,1111
9358,1847,-1162,16041,-66.77,79.28,-83.80,454.26,-47.77,1282.38,-105.72,-87.35,-251.03,-5670.21,-5664.14,-208.90,-665.03,-672.31,-8.34,1111,1111,1111,1111
9365,2049,-978,15991,-85.13,97.63,-62.78,454.26,-47.77,1282.38,-106.11,-86.97,-251.56,-5670.21,-5664.14,-208.90,-665.52,-671.39,-8.02,1111,1111,1111,1111
9371,2312,-872,15725,-84.07,105.61,-38.31,454.26,-47.77,1282.38,-106.51,-86.81,-251.87,-5670.21,-5664.14,-208.90,-665.07,-670.29,-7.16,1111,1111,1111,1111
9377,2023,-1058,15329,-68.90,113.86,-21.55,454.26,-47.77,1282.38,-106.97,-86.69,-252.06,-5670.21,-5664.14,-208.90,-664.96,-669.97,-6.32,1111,1111,1111,1111
9383,1655,-1592,14947,-44.69,115.72,-18.36,454.26,-47.77,1282.38,-106.48,-88.09,-252.04,-5670.21,-5664.14,-208.90,-670.77,-660.08,-5.03,1111,1111,1111,1111
9391,1539,-2029,14953,-36.45,109.87,-27.67,454.26,-47.77,1282.38,-105.67,-89.66,-252.12,-5670.21,-5664.14,-208.90,-672.32,-660.12,-5.61,1111,1111,1111,1111
9396,1818,-2193,15260,-30.06,90.45,-37.78,454.26,-47.77,1282.38,-105.42,-90.95,-252.24,-5670.21,-5664.14,-208.90,-669.41,-660.43,-6.01,1111,1111,1111,1111
9403,1960,-2160,15603,-30.33,82.74,-25.27,454.26,-49.39,1282.38,-105.35,-92.47,-252.31,-5670.21,-5664.14,-208.90,-668.13,-660.52,-5.55,1111,1111,1111,1111
9409,1912,-1885,16014,-28.20,101.09,-5.05,454.26,-49.39,1282.38,-105.26,-93.68,-252.24,-5670.21,-5664.14,-208.90,-668.37,-660.64,-4.79,1111,1111,1111,1111
9415,1961,-1612,16180,-19.95,114.93,18.09,454.26,-49.39,1282.38,-105.61,-94.48,-252.06,-5670.21,-5664.14,-208.90,-665.76,-663.76,-4.12,1111,1111,1111,1111
9421,2142,-1570,16232,-15.96,126.37,35.12,454.26,-49.39,1282.38,-105.99,-94.82,-251.86,-5670.21,-5664.14,-208.90,-665.26,-666.13,-3.88,1111,1111,1111,1111
9428,2173,-1638,16048,-16.49,137.54,45.76,454.26,-49.39,1282.38,-106.29,-95.39,-251.56,-5670.21,-5664.14,-208.90,-665.96,-665.03,-3.42,1111,1111,1111,1111
9434,2158,-1632,15780,-16.76,158.02,47.62,454.26,-49.39,1282.38,-106.43,-95.89,-251.30,-5670.21,-5664.14,-208.90,-666.73,-664.93,-3.42,1111,1111,1111,1111
9441,2060,-1604,15787,-11.97,172.12,48.42,454.26,-49.39,1282.38,-106.50,-96.41,-251.02,-5670.21,-5664.14,-208.90,-667.24,-665.15,-3.40,1111,1111,1111,1111
9447,1998,-1602,15723,-3.19,183.56,40.44,454.26,-49.39,1282.38,-106.49,-96.84,-250.81,-5670.21,-5664.14,-208.90,-667.74,-665.26,-3.69,1111,1111,1111,1111
9454,1746,-1673,15547,-0.27,187.02,19.69,454.26,-49.39,1284.32,-105.70,-98.11,-250.61,-5670.21,-5664.14,-208.90,-671.99,-661.05,-3.95,1111,1111,1111,1111
9459,1589,-1755,15505,0.00,190.48,-7.18,454.26,-49.39,1284.32,-104.32,-99.23,-250.62,-5670.21,-5664.14,-208.90,-676.84,-660.54,-5.05,1111,1111,1111,1111
9466,1404,-1666,15482,-7.45,193.14,-38.84,454.26,-49.39,1284.32,-101.94,-99.97,-250.91,-5670.21,-5664.14,-208.90,-681.74,-663.52,-6.69,1111,1111,1111,1111
9473,1252,-1556,15533,-19.95,196.07,-69.17,454.26,-49.39,1284.32,-99.66,-100.08,-251.41,-5670.21,-5664.14,-208.90,-683.20,-666.92,-8.34,1111,1111,1111,1111
9479,1256,-1372,15667,-25.01,194.20,-89.12,454.26,-49.39,1284.32,-97.26,-99.51,-252.19,-5670.21,-5664.14,-208.90,-682.32,-671.01,-9.58,1111,1111,1111,1111
9485,1234,-1325,15774,-37.78,190.48,-103.49,454.26,-49.39,1284.32,-95.26,-98.97,-252.95,-5670.21,-5664.14,-208.90,-681.94,-671.28,-10.20,1111,1111,1111,1111
9491,1013,-1666,15942,-45.76,184.89,-110.14,452.68,-49.39,1284.32,-92.77,-99.52,-253.76,-5670.21,-5664.14,-208.90,-683.25,-664.70,-9.95,1111,1111,1111,1111
9497,1118,-2226,15894,-61.19,202.45,-117.59,452.68,-49.39,1284.32,-91.11,-100.84,-254.46,-5670.21,-5664.14,-208.90,-680.28,-659.04,-9.98,1111,1111,1111,1111
9504,1315,-2482,16020,-91.25,218.68,-139.40,452.68,-49.39,1284.32,-89.44,-102.76,-255.45,-5670.21,-5664.14,-208.90,-678.71,-656.97,-10.96,1111,1111,1111,1111
9510,1570,-2638,16065,-106.95,227.46,-159.62,452.68,-49.39,1284.32,-88.35,-104.45,-256.41,-5670.21,-5664.14,-208.90,-676.90,-656.20,-11.93,1111,1111,1111,1111
9517,1856,-2814,16196,-126.37,234.64,-183.30,452.68,-49.39,1284.32,-87.35,-106.46,-257.71,-5670.21,-5664.14,-208.90,-675.53,-655.70,-13.09,1111,1111,1111,1111
9523,2219,-2644,16151,-148.45,237.83,-207.51,452.68,-49.39,1284.32,-86.85,-108.08,-258.98,-5670.21,-5664.14,-208.90,-673.27,-656.11,-14.33,1111,1111,1111,1111
9530,2563,-2314,16607,-186.75,236.50,-223.73,452.68,-49.39,1286.27,-86.64,-109.75,-260.59,-5670.21,-5664.14,-208.90,-671.21,-657.07,-15.38,1111,1111,1111,1111
9535,2550,-2100,16376,-218.15,226.66,-232.25,452.68,-49.39,1286.27,-86.60,-111.19,-262.07,-5670.21,-5664.14,-208.90,-670.32,-657.01,-15.98,1111,1111,1111,1111
9542,2285,-2063,16237,-250.60,213.36,-249.01,452.68,-49.39,1286.27,-86.64,-113.02,-263.83,-5670.21,-5664.14,-208.90,-669.76,-655.51,-16.79,1111,1111,1111,1111
9547,2025,-1881,16254,-264.70,205.64,-275.88,452.68,-49.39,1286.27,-86.80,-114.45,-265.60,-5670.21,-5664.14,-208.90,-669.04,-656.72,-18.21,1111,1111,1111,1111
9554,2036,-1706,16403,-287.85,192.08,-305.94,451.10,-51.01,1286.27,-87.03,-115.83,-267.96,-5670.21,-5665.44,-208.90,-668.72,-658.54,-19.81,1111,1111,1111,1111
9561,1864,-1743,16295,-326.16,175.85,-331.21,451.10,-51.01,1286.27,-87.31,-117.11,-270.09,-5670.21,-5665.44,-208.90,-668.15,-657.54,-21.05,1111,1111,1111,1111
9568,1807,-1609,16464,-399.05,163.34,-354.09,451.10,-51.01,1286.27,-87.44,-118.63,-272.74,-5670.21,-5665.44,-208.90,-669.23,-657.17,-22.42,1111,1111,1111,1111
9574,1763,-1562,16652,-487.90,148.71,-368.72,451.10,-51.01,1286.27,-87.45,-120.30,-275.13,-5670.21,-5665.44,-208.90,-669.87,-654.64,-23.31,1111,1111,1111,1111
9580,1746,-1452,16829,-600.97,130.62,-370.32,451.10,-51.01,1286.27,-87.38,-122.89,-277.88,-5670.21,-5665.44,-208.90,-670.33,-650.62,-23.67,1111,1111,1111,1111
9586,1662,-1647,16990,-724.14,117.32,-363.93,451.10,-51.01,1286.27,-87.28,-125.84,-280.24,-5670.21,-5665.44,-208.90,-670.53,-645.79,-23.77,1111,1111,1111,1111
9593,1795,-1675,17120,-841.99,91.52,-349.57,449.53,-51.01,1286.27,-87.54,-130.06,-282.81,-5670.21,-5665.44,-208.90,-668.46,-640.34,-23.41,1111,1111,1111,1111
9598,1869,-1625,17466,-943.62,63.85,-314.45,449.53,-51.01,1286.27,-87.84,-134.40,-284.86,-5670.21,-5665.44,-208.90,-667.97,-636.03,-22.22,1111,1111,1111,1111
9606,1637,-1566,17455,-1025.02,27.14,-271.62,449.53,-51.01,1286.27,-87.99,-140.07,-286.98,-5670.21,-5664.14,-208.90,-669.06,-632.43,-20.75,1111,1111,1111,1111
9612,1686,-1654,17598,-1064.40,-13.30,-226.13,449.53,-51.01,1286.27,-88.34,-145.07,-288.46,-5670.21,-5664.14,-208.90,-667.57,-630.15,-19.05,1111,1111,1111,1111
9619,1524,-1848,17549,-1081.42,-66.51,-177.71,449.53,-51.01,1288.22,-88.81,-150.98,-289.80,-5670.21,-5664.14,-208.90,-667.17,-628.56,-17.20,1111,1111,1111,1111
9624,1327,-1956,17583,-1075.30,-117.32,-131.95,449.53,-51.01,1288.22,-89.23,-156.16,-290.65,-5670.21,-5664.14,-208.90,-667.03,-627.60,-15.28,1111,1111,1111,1111
9631,1312,-2156,17735,-1051.36,-172.12,-86.99,449.53,-54.25,1288.22,-89.94,-161.97,-291.27,-5670.21,-5664.14,-208.90,-665.60,-627.44,-13.36,1111,1111,1111,1111
9637,1144,-2365,17762,-1009.86,-236.50,-43.36,449.53,-54.25,1288.22,-90.70,-167.05,-291.48,-5670.21,-5664.14,-208.90,-664.70,-627.47,-11.30,1111,1111,1111,1111
9644,1153,-2610,17856,-955.32,-295.30,-5.85,449.53,-57.49,1288.22,-91.79,-172.34,-291.42,-5670.21,-5664.14,-208.90,-663.15,-628.32,-9.53,1111,1111,1111,1111
9650,1057,-2867,17881,-890.94,-352.23,27.40,449.53,-57.49,1288.22,-92.90,-176.90,-291.10,-5670.21,-5664.14,-208.90,-662.09,-629.06,-7.81,1111,1111,1111,1111
9657,1101,-3053,18092,-815.39,-425.12,64.38,449.53,-57.49,1288.22,-94.60,-181.70,-290.41,-5670.21,-5664.14,-208.90,-659.56,-630.99,-5.87,1111,1111,1111,1111
9662,1125,-3143,18233,-727.07,-492.69,97.90,449.53,-57.49,1288.22,-96.44,-185.36,-289.53,-5670.21,-5664.14,-208.90,-656.94,-633.88,-4.02,1111,1111,1111,1111
9669,1141,-3272,18405,-625.44,-565.32,131.95,449.53,-60.73,1288.22,-98.97,-188.93,-288.19,-5670.21,-5664.14,-208.90,-654.34,-636.92,-1.99,1111,1111,1111,1111
9675,1187,-3248,18308,-514.51,-627.04,162.01,449.53,-60.73,1288.22,-101.53,-191.35,-286.79,-5670.21,-5664.14,-208.90,-651.65,-641.05,-0.24,1111,1111,1111,1111
9681,1280,-3214,18384,-398.52,-686.36,190.21,449.53,-65.59,1288.22,-104.90,-193.31,-284.90,-5670.21,-5664.14,-208.90,-648.85,-645.47,1.52,1111,1111,1111,1111
9688,1372,-3046,18341,-254.33,-752.87,221.34,449.53,-65.59,1288.22,-108.29,-194.11,-282.99,-5670.21,-5664.14,-208.90,-645.49,-651.25,3.44,1111,1111,1111,1111
9695,1422,-3070,18233,-89.39,-813.26,249.01,451.10,-70.45,1288.22,-112.52,-193.96,-280.54,-5670.21,-5664.14,-208.90,-643.04,-657.24,5.23,1111,1111,1111,1111
9700,1461,-3078,18120,81.41,-872.85,266.83,451.10,-70.45,1288.22,-116.54,-192.88,-278.22,-5670.21,-5664.14,-208.90,-640.63,-663.53,6.60,1111,1111,1111,1111
9707,1557,-3156,18047,269.49,-931.91,283.86,451.10,-76.92,1288.22,-121.65,-190.34,-275.28,-5670.21,-5665.44,-208.90,-638.18,-670.72,7.96,1111,1111,1111,1111
9713,1533,-3153,18064,448.26,-985.38,301.41,451.10,-76.92,1288.22,-126.19,-187.25,-272.62,-5670.21,-5665.44,-208.90,-636.22,-677.18,9.34,1111,1111,1111,1111
9719,1515,-3064,17869,617.46,-1035.93,308.33,452.68,-81.78,1286.27,-131.54,-182.75,-269.55,-5670.21,-5665.44,-208.90,-633.95,-683.68,10.32,1111,1111,1111,1111
9725,1513,-3053,17784,784.53,-1077.43,310.19,452.68,-81.78,1286.27,-136.48,-177.90,-266.78,-5670.21,-5665.44,-208.90,-632.20,-689.85,10.96,1111,1111,1111,1111
9733,1497,-2876,17704,965.43,-1113.35,304.08,452.68,-86.64,1284.32,-142.34,-171.20,-263.64,-5670.21,-5665.44,-208.90,-630.06,-697.38,11.26,1111,1111,1111,1111
9738,1546,-2754,17486,1142.08,-1146.60,293.70,452.68,-86.64,1284.32,-147.65,-164.36,-260.95,-5670.21,-5665.44,-208.90,-628.18,-704.55,11.23,1111,1111,1111,1111
9745,1608,-2615,17470,1299.57,-1169.48,274.55,457.41,-86.64,1282.38,-153.77,-155.70,-258.08,-5670.21,-5665.44,-208.90,-626.42,-711.45,10.76,1111,1111,1111,1111
9751,1771,-2460,17464,1444.02,-1190.50,255.13,457.41,-86.64,1282.38,-159.52,-146.94,-255.61,-5670.21,-5665.44,-208.90,-624.69,-718.02,10.12,1111,1111,1111,1111
9758,1856,-2250,17349,1581.03,-1199.54,228.79,460.57,-86.64,1278.48,-166.42,-135.61,-252.94,-5670.21,-5664.14,-208.90,-623.24,-724.52,9.14,1111,1111,1111,1111
9763,1911,-2075,17192,1701.01,-1204.33,200.85,460.57,-86.64,1278.48,-172.21,-125.52,-250.91,-5670.21,-5664.14,-208.90,-622.37,-729.79,8.05,1111,1111,1111,1111
9771,1927,-1956,17071,1807.69,-1204.60,172.66,465.30,-86.64,1276.53,-178.90,-113.26,-248.80,-5670.21,-5664.14,-208.90,-621.60,-734.55,6.99,1111,1111,1111,1111
9777,1990,-1854,16784,1910.65,-1189.96,135.94,465.30,-86.64,1276.53,-184.64,-102.18,-247.22,-5670.21,-5664.14,-208.90,-621.41,-738.58,5.54,1111,1111,1111,1111
9783,2185,-1709,16620,2002.16,-1162.56,102.95,470.03,-86.64,1272.64,-190.94,-89.30,-245.72,-5670.21,-5664.14,-208.90,-621.44,-742.79,4.15,1111,1111,1111,1111
9789,2374,-1433,16453,2085.43,-1131.44,72.89,470.03,-86.64,1272.64,-196.44,-77.27,-244.63,-5670.21,-5664.14,-208.90,-621.71,-747.23,2.70,1111,1111,1111,1111
9796,2556,-1111,16242,2167.90,-1090.47,42.03,477.92,-86.64,1270.69,-202.44,-63.02,-243.68,-5670.21,-5664.14,-208.90,-622.37,-752.36,1.20,1111,1111,1111,1111
9801,2716,-874,16227,2241.86,-1036.46,14.37,477.92,-86.64,1270.69,-207.39,-50.37,-243.05,-5670.21,-5664.14,-208.90,-623.39,-755.76,-0.03,1111,1111,1111,1111
9808,2782,-672,16000,2296.66,-975.28,-11.97,484.23,-85.02,1268.74,-212.93,-35.19,-242.54,-5670.21,-5664.14,-208.90,-624.46,-758.84,-1.26,1111,1111,1111,1111
9815,2996,1582,15035,2330.18,-915.15,-64.11,484.23,-85.02,1268.74,-218.14,-20.30,-242.97,-5670.21,-5664.14,-208.90,-620.47,-773.82,-6.85,1111,1111,1111,1111
9821,3364,-2788,16039,2334.70,-912.49,-108.01,487.38,-80.16,1262.90,-224.17,-5.89,-243.29,-5670.21,-5664.14,-208.90,-619.29,-760.76,-5.95,1111,1111,1111,1111
9827,3082,1084,15503,2359.18,-811.13,-129.03,487.38,-80.16,1262.90,-228.14,9.09,-244.08,-5670.21,-5664.14,-208.90,-627.61,-776.92,-9.28,1111,1111,1111,1111
9834,3198,497,15163,2367.16,-758.46,-165.74,498.42,-73.68,1259.01,-232.36,24.36,-244.80,-5670.21,-5664.14,-208.90,-628.77,-768.47,-8.36,1111,1111,1111,1111
9839,3822,-903,15124,2370.08,-675.72,-192.08,498.42,-73.68,1259.01,-236.37,37.39,-245.73,-5670.21,-5664.14,-208.90,-626.15,-768.40,-10.46,1111,1111,1111,1111
9846,2780,414,14894,2379.39,-588.20,-224.27,503.15,-63.97,1257.06,-239.37,52.65,-247.07,-5670.21,-5664.14,-208.90,-634.64,-772.89,-12.19,1111,1111,1111,1111
9852,3870,622,14469,2387.11,-520.63,-254.33,503.15,-63.97,1257.06,-242.41,65.57,-248.32,-5670.21,-5664.14,-208.90,-631.19,-773.25,-13.00,1111,1111,1111,1111
9859,3345,31,14366,2399.08,-425.92,-286.52,511.04,-54.25,1251.22,-244.99,81.64,-250.16,-5670.21,-5665.44,-208.90,-637.12,-776.17,-14.86,1111,1111,1111,1111
9865,3431,342,14284,2397.48,-339.99,-317.91,511.04,-54.25,1251.22,-246.60,95.03,-251.85,-5670.21,-5665.44,-208.90,-640.44,-778.04,-16.13,1111,1111,1111,1111
9872,3612,848,14079,2412.12,-244.75,-345.58,517.35,-41.30,1249.27,-247.88,110.93,-253.97,-5670.21,-5665.44,-208.90,-643.62,-780.65,-17.05,1111,1111,1111,1111
9878,3746,63,14090,2404.14,-146.05,-369.79,517.35,-41.30,1249.27,-248.44,124.64,-255.93,-5670.21,-5665.44,-208.90,-647.07,-782.10,-18.16,1111,1111,1111,1111
9885,3786,1039,13826,2394.29,-54.80,-401.44,518.93,-29.96,1245.37,-248.40,140.41,-258.30,-5670.21,-5665.44,-208.90,-650.79,-783.85,-18.99,1111,1111,1111,1111
9890,3566,1340,13966,2380.72,39.90,-424.59,518.93,-29.96,1245.37,-247.59,154.05,-260.40,-5670.21,-5665.44,-208.90,-655.93,-785.23,-19.55,1111,1111,1111,1111
9897,3943,1020,13526,2353.32,139.14,-444.81,526.81,-18.62,1241.48,-246.22,169.48,-262.84,-5670.21,-5665.44,-208.90,-658.44,-785.40,-20.03,1111,1111,1111,1111
9904,3873,1298,13501,2321.13,224.53,-465.56,526.81,-18.62,1241.48,-244.43,182.74,-264.97,-5670.21,-5665.44,-208.90,-662.54,-785.40,-20.30,1111,1111,1111,1111
9911,3629,1710,13259,2266.86,304.08,-480.19,528.39,-7.29,1239.53,-241.56,198.21,-267.46,-5670.21,-5664.14,-208.90,-666.72,-785.40,-20.28,1111,1111,1111,1111
9917,3662,1755,13017,2207.01,371.91,-501.47,528.39,-7.29,1239.53,-238.79,210.60,-269.51,-5670.21,-5664.14,-208.90,-669.68,-785.08,-20.59,1111,1111,1111,1111
9923,3357,1640,12911,2131.72,438.42,-531.00,529.97,7.29,1239.53,-234.97,224.43,-271.97,-5670.21,-5664.14,-208.90,-673.60,-783.98,-21.33,1111,1111,1111,1111
9929,3292,2218,12664,2056.70,488.70,-559.20,529.97,7.29,1239.53,-231.35,235.75,-274.08,-5670.21,-5664.14,-208.90,-676.51,-782.59,-21.72,1111,1111,1111,1111
9935,3279,2164,12608,1991.79,545.90,-591.66,529.97,18.62,1233.69,-226.75,248.41,-276.61,-5670.21,-5664.14,-208.90,-679.43,-781.64,-22.50,1111,1111,1111,1111
9942,3130,2146,12461,1912.24,583.94,-625.44,529.97,18.62,1233.69,-222.38,259.11,-278.92,-5670.21,-5664.14,-208.90,-682.02,-780.01,-23.41,1111,1111,1111,1111
9949,2985,2533,12388,1836.16,640.61,-662.42,529.97,33.20,1233.69,-216.86,270.86,-281.65,-5670.21,-5664.14,-208.90,-685.60,-778.64,-24.14,1111,1111,1111,1111
9954,2862,2372,12250,1765.92,673.86,-698.07,529.97,33.20,1233.69,-211.88,280.52,-284.09,-5670.21,-5664.14,-208.90,-687.93,-777.19,-25.17,1111,1111,1111,1111
9961,2919,2477,12215,1704.47,726.27,-742.50,529.97,47.77,1233.69,-205.40,291.85,-287.20,-5670.21,-5664.14,-208.90,-690.93,-776.22,-26.27,1111,1111,1111,1111
9967,2943,2597,12151,1636.63,771.23,-785.86,529.97,47.77,1233.69,-199.70,300.88,-289.89,-5670.21,-5664.14,-208.90,-693.68,-774.76,-27.30,1111,1111,1111,1111
9973,3055,2773,12250,1568.79,831.35,-827.36,529.97,47.77,1233.69,-192.94,310.46,-292.95,-5670.21,-5664.14,-208.90,-697.01,-773.31,-28.09,1111,1111,1111,1111
9979,3235,3007,12181,1502.02,876.04,-859.28,529.97,47.77,1233.69,-186.70,318.59,-295.70,-5670.21,-5664.14,-208.90,-699.34,-771.70,-28.60,1111,1111,1111,1111
9986,3149,3085,12309,1429.39,933.77,-888.55,529.97,62.35,1233.69,-178.82,327.71,-298.97,-5670.21,-5664.14,-208.90,-702.92,-769.90,-29.04,1111,1111,1111,1111
9992,3147,3225,12363,1352.24,984.59,-919.41,529.97,62.35,1233.69,-171.73,335.06,-301.78,-5670.21,-5664.14,-208.90,-706.01,-767.76,-29.46,1111,1111,1111,1111
9999,2998,3157,12536,1275.63,1041.78,-952.66,529.97,73.68,1233.69,-163.04,343.00,-305.07,-5670.21,-5664.14,-208.90,-709.84,-765.66,-30.07,1111,1111,1111,1111
