timestamp,accelX,accelY,accelZ,gyroX,gyroY,gyroZ,magX,magY,magZ,roll,pitch,yaw,rollLevel,pitchLevel,yawLevel,rollPid,pitchPid,yawPid,output0,output1,output2,output3
354781,-449,-562,14866,175.85,331.74,299.82,-264.98,-81.78,1566.70,90.67,-9.77,994.04,307.22,-49.55,1031.27,9.72,-6.65,8.47,1400,1385,1384,1374
354787,646,1123,15424,294.23,300.08,253.26,-264.98,-81.78,1566.70,91.83,-6.78,995.73,308.52,-49.55,1031.27,18.93,-23.39,6.10,1404,1375,1398,1362
354793,839,-1629,15941,226.66,345.84,278.00,-269.72,-78.54,1560.86,93.23,-6.03,997.59,308.52,-49.55,1031.27,18.03,-9.45,6.26,1403,1376,1387,1373
354799,-722,1872,14620,342.38,313.12,214.95,-269.72,-78.54,1560.86,95.26,-2.67,999.01,308.52,-49.55,1031.27,12.68,-26.97,5.19,1398,1379,1401,1360
354806,2030,-1515,16652,311.52,372.18,256.72,-269.72,-72.06,1558.91,96.57,-0.97,1000.73,308.52,-49.55,1031.27,18.13,-15.35,5.96,1403,1375,1392,1368
354812,-1368,-22,14697,394.26,332.54,217.61,-269.72,-72.06,1558.91,99.70,1.79,1002.14,308.52,-49.55,1031.27,5.16,-23.72,5.48,1393,1385,1399,1362
354819,2566,-884,15665,399.58,367.39,242.09,-269.72,-72.06,1558.91,100.90,4.44,1003.84,308.52,-49.55,1031.27,18.37,-20.92,5.96,1403,1375,1396,1364
354825,-1597,-1121,13246,430.44,309.93,210.70,-269.72,-72.06,1558.91,103.58,6.30,1005.07,308.52,-49.55,1031.27,7.51,-18.53,4.69,1394,1382,1395,1367
354832,1048,2539,16219,552.02,260.98,202.45,-271.29,-72.06,1556.96,104.57,11.28,1006.59,308.52,-49.55,1031.27,18.91,-35.40,5.65,1404,1374,1408,1353
354838,344,-1291,16510,537.12,325.62,233.84,-271.29,-72.06,1556.96,105.81,13.87,1008.06,308.52,-49.55,1031.27,16.94,-23.13,5.97,1403,1377,1399,1363
354844,-809,1490,18732,672.53,317.64,164.67,-271.29,-72.06,1556.96,107.74,19.63,1009.37,308.52,-49.55,1031.27,12.71,-42.14,5.07,1399,1380,1414,1349
354850,1570,-1299,15468,569.04,395.32,225.06,-271.29,-72.06,1556.96,109.07,22.54,1010.73,308.52,-49.55,1031.27,15.47,-27.12,6.18,1402,1378,1402,1360
354857,-593,-525,14747,658.96,309.40,169.73,-271.29,-72.06,1556.96,110.86,25.87,1011.92,308.52,-49.55,1031.27,13.87,-27.43,4.22,1400,1378,1403,1361
354864,3607,347,11770,669.34,319.77,218.15,-271.29,-72.06,1556.96,111.54,30.05,1013.30,308.52,-49.55,1031.27,19.28,-36.12,6.62,1406,1376,1408,1353
354870,-738,-1308,15598,702.59,295.56,171.59,-271.29,-72.06,1558.91,113.43,33.62,1014.44,308.52,-49.55,1031.27,12.94,-29.83,4.35,1399,1379,1405,1359
354876,365,1826,15116,741.43,312.32,192.08,-271.29,-72.06,1558.91,114.44,39.05,1015.80,308.52,-49.55,1031.27,16.82,-45.33,6.83,1404,1378,1415,1346
354883,-588,-1082,16712,699.13,288.65,197.13,-272.87,-72.06,1558.91,116.06,42.65,1017.15,308.52,-49.55,1031.27,14.07,-31.09,5.79,1401,1379,1405,1357
354889,1362,1655,18485,737.18,287.05,167.87,-272.87,-72.06,1558.91,116.63,47.79,1018.37,308.52,-49.55,1031.27,19.56,-43.07,5.91,1404,1374,1413,1347
354896,-885,-1209,16339,664.02,253.00,192.61,-277.60,-65.59,1556.96,118.25,51.13,1019.68,308.52,-49.55,1031.27,13.84,-30.59,5.89,1400,1379,1404,1357
354903,1889,-629,15107,676.25,188.08,144.46,-277.60,-65.59,1556.96,118.27,54.74,1020.58,308.52,-49.55,1031.27,22.74,-35.49,4.40,1406,1371,1409,1354
354909,-1132,764,14134,729.99,225.06,194.20,-277.60,-59.11,1555.01,120.86,59.77,1022.30,308.52,-49.55,1031.27,7.74,-41.76,8.71,1397,1385,1410,1346
354915,1162,-270,14297,727.60,144.19,162.55,-277.60,-59.11,1555.01,120.62,63.68,1023.30,308.52,-49.55,1031.27,24.09,-38.36,5.39,1407,1370,1410,1351
354922,88,168,14730,658.70,159.62,185.69,-276.03,-57.49,1555.01,120.54,67.53,1024.64,308.52,-49.55,1031.27,22.97,-35.33,6.61,1407,1372,1407,1352
354928,-502,-1185,14998,680.25,3.46,168.66,-276.03,-57.49,1555.01,120.27,70.55,1025.56,308.52,-49.55,1031.27,24.32,-33.53,5.16,1407,1370,1406,1355
354934,1820,516,16289,650.72,58.26,177.71,-277.60,-55.87,1553.07,119.24,74.91,1026.84,308.52,-49.55,1031.27,28.36,-38.75,6.45,1411,1368,1409,1350
354940,-2677,-70,17784,623.31,-21.55,183.30,-277.60,-55.87,1553.07,119.95,78.13,1027.96,308.52,-50.85,1031.27,18.29,-34.99,6.36,1405,1376,1408,1354
354948,2920,625,15590,634.75,-62.78,168.13,-277.60,-52.63,1553.07,118.09,82.39,1029.08,308.52,-50.85,1031.27,33.20,-39.62,6.00,1416,1365,1411,1351
354954,-3151,-1348,16683,649.12,-128.76,194.47,-277.60,-52.63,1553.07,117.98,85.48,1030.12,308.52,-50.85,1031.27,23.56,-35.93,6.43,1409,1372,1408,1353
354961,1758,570,15329,646.99,-190.48,186.22,-279.18,-34.82,1553.07,115.23,89.70,1031.30,308.52,-50.85,1031.27,38.29,-40.09,6.48,1420,1361,1411,1350
354967,-1904,-313,18074,655.77,-189.68,209.10,-279.18,-34.82,1553.07,114.53,92.70,1032.40,308.52,-50.85,1031.27,27.75,-36.17,7.11,1412,1370,1408,1352
354973,1523,-266,15651,643.27,-314.18,199.79,-283.91,-28.34,1553.07,111.11,96.47,1033.54,308.52,-50.85,1031.27,42.32,-38.27,6.51,1423,1358,1410,1351
354979,-335,517,17713,589.26,-260.45,237.03,-283.91,-28.34,1553.07,109.02,99.02,1034.83,308.52,-50.85,1031.27,37.17,-34.09,8.51,1421,1364,1405,1353
354987,-275,-978,15671,592.72,-375.90,195.27,-279.18,-25.10,1553.07,106.10,101.87,1035.83,308.52,-50.85,1031.27,40.27,-33.94,6.08,1421,1359,1407,1355
354993,1071,2071,14986,586.34,-341.59,233.58,-279.18,-25.10,1553.07,102.64,106.08,1037.21,308.52,-49.55,1031.27,45.71,-44.21,9.05,1427,1356,1412,1344
355000,-576,-1314,15796,540.84,-410.49,187.02,-279.18,-25.10,1553.07,99.76,108.52,1038.11,308.52,-49.55,1031.27,40.96,-32.46,5.83,1421,1358,1405,1355
355006,1346,1147,15296,474.87,-359.41,206.18,-279.18,-25.10,1553.07,96.33,111.14,1039.18,308.52,-49.55,1031.27,47.16,-35.83,7.67,1427,1354,1406,1351
355012,-233,-787,16295,478.59,-391.33,208.84,-277.60,-23.48,1555.01,93.48,113.14,1040.25,308.52,-49.55,1031.27,41.64,-30.70,7.07,1422,1358,1403,1356
355018,1695,891,15583,509.19,-371.38,184.09,-277.60,-23.48,1555.01,90.06,115.78,1041.14,308.52,-49.55,1031.27,47.95,-36.61,6.84,1427,1353,1408,1351
355025,-1597,1044,16724,519.03,-359.94,205.11,-276.03,-18.62,1555.01,88.61,118.76,1042.34,308.52,-49.55,1031.27,34.40,-36.65,7.95,1417,1364,1407,1350
355032,1979,-1178,15458,436.29,-325.62,168.13,-276.03,-18.62,1555.01,85.88,120.46,1043.08,308.52,-49.55,1031.27,44.05,-31.17,6.11,1423,1355,1404,1356
355039,-647,825,13484,426.98,-371.38,188.88,-276.03,-17.00,1555.01,84.05,122.43,1044.18,308.52,-49.55,1031.27,37.06,-31.53,7.66,1419,1362,1403,1355
355045,2732,-367,11322,425.65,-403.31,158.56,-276.03,-17.00,1555.01,80.37,124.47,1044.86,307.22,-49.55,1029.98,49.54,-33.32,5.87,1428,1352,1407,1356
355051,-1350,68,16033,370.05,-403.57,160.68,-263.41,-15.38,1555.01,78.29,125.98,1045.63,307.22,-49.55,1029.98,38.93,-29.36,6.13,1420,1360,1403,1358
355057,2148,-253,17775,278.00,-432.57,169.73,-263.41,-15.38,1555.01,74.76,126.79,1046.34,307.22,-49.55,1029.98,49.82,-26.22,6.34,1429,1352,1401,1361
355064,-884,300,16648,303.28,-396.39,150.31,-263.41,-7.29,1555.01,72.63,127.77,1047.06,307.22,-49.55,1029.98,39.84,-26.63,6.05,1421,1360,1401,1361
355070,-470,1167,15911,327.22,-402.24,160.42,-263.41,-7.29,1555.01,70.88,128.90,1047.86,307.22,-49.55,1029.98,39.36,-28.55,7.18,1421,1361,1402,1358
355078,647,-413,15700,238.37,-360.74,133.55,-263.41,-7.29,1555.01,68.07,129.23,1048.48,307.22,-49.55,1029.98,44.08,-23.25,5.58,1424,1356,1399,1363
355084,508,446,14933,210.70,-448.00,124.50,-263.41,-7.29,1555.01,65.16,129.34,1048.95,307.22,-49.55,1029.98,47.46,-22.15,5.28,1426,1353,1399,1365
355090,1656,-495,16295,129.03,-361.54,147.12,-263.41,-2.43,1555.01,61.97,129.04,1049.66,307.22,-49.55,1029.98,47.07,-19.77,6.27,1427,1354,1396,1366
355097,-1492,626,18129,129.03,-379.63,108.81,-263.41,-2.43,1555.01,60.50,129.12,1050.10,307.22,-49.55,1031.27,38.42,-21.90,4.91,1420,1361,1400,1366
355103,1653,348,15721,92.31,-334.93,138.60,-263.41,-0.81,1555.01,57.29,128.68,1050.84,307.22,-49.55,1031.27,47.69,-18.97,6.39,1428,1355,1396,1367
355109,206,-167,18367,52.94,-319.51,102.69,-263.41,-0.81,1555.01,55.57,127.85,1051.26,307.22,-49.55,1031.27,41.13,-16.04,5.07,1422,1359,1395,1370
355117,412,298,15700,3.46,-254.33,122.11,-263.41,0.81,1555.01,53.96,126.57,1051.97,307.22,-49.55,1031.27,39.42,-14.00,6.47,1422,1361,1392,1371
355123,78,-355,16117,49.75,-299.02,119.71,-263.41,0.81,1555.01,52.41,125.75,1052.51,307.22,-49.55,1031.27,40.34,-15.81,5.96,1422,1360,1394,1370
355129,953,1144,16917,3.72,-222.40,111.20,-258.68,0.81,1555.01,50.47,124.51,1053.37,307.22,-49.55,1031.27,41.52,-14.08,7.41,1424,1360,1392,1370
355135,-11,-341,16619,-3.46,-227.99,108.81,-258.68,0.81,1555.01,49.43,123.38,1053.91,307.22,-49.55,1031.27,37.48,-13.65,6.11,1420,1363,1392,1371
355142,2476,441,16285,-84.60,-175.05,98.96,-250.79,0.81,1578.38,47.07,121.96,1054.53,307.22,-49.55,1031.27,44.16,-12.76,6.18,1425,1357,1392,1372
355148,-1906,-548,15052,-68.64,-182.23,114.13,-250.79,0.81,1578.38,46.81,120.74,1055.13,308.52,-50.85,1029.98,32.99,-13.26,6.68,1432,1381,1407,1386
355155,2012,1701,17623,-122.64,-138.34,94.18,-244.48,8.91,1578.38,44.44,119.65,1055.88,308.52,-50.85,1029.98,44.69,-14.49,7.22,1441,1373,1407,1385
355162,-1370,-104,13727,-162.28,-63.58,104.82,-244.48,8.91,1578.38,44.93,117.98,1056.50,308.52,-50.85,1029.98,28.51,-9.60,7.12,1429,1385,1403,1389
355169,1233,742,15702,-203.25,-121.04,76.88,-247.63,8.91,1578.38,43.40,115.37,1057.13,308.52,-50.85,1029.98,40.17,-5.68,6.69,1438,1376,1401,1392
355175,1448,-117,14895,-306.74,-66.51,78.48,-247.63,8.91,1578.38,42.47,112.41,1057.63,308.52,-50.85,1029.98,37.73,-1.10,6.45,1435,1377,1397,1396
355181,-292,954,18243,-250.87,-100.29,60.39,-239.75,8.91,1578.38,42.84,109.89,1058.12,308.52,-50.85,1029.98,29.88,-5.36,6.09,1429,1383,1401,1393
355187,2031,389,13995,-330.15,-35.38,58.26,-239.75,8.91,1578.38,41.61,107.23,1058.53,308.52,-50.85,1029.98,39.79,-2.15,6.00,1437,1375,1399,1395
355194,-1393,-259,14679,-293.17,-115.99,56.66,-239.75,8.91,1580.33,41.87,104.37,1058.88,308.52,-50.85,1029.98,30.59,-2.93,5.39,1429,1382,1400,1395
355201,921,933,18214,-451.46,-97.37,51.61,-239.75,8.91,1580.33,41.14,100.36,1059.42,308.52,-50.85,1028.69,36.54,6.25,6.93,1438,1382,1394,1404
355208,-1000,-690,17917,-397.45,-108.81,77.68,-239.75,8.91,1580.33,41.23,96.63,1059.91,308.52,-50.85,1028.69,31.57,3.09,6.51,1434,1385,1397,1402
355214,757,2252,17185,-424.32,-71.83,31.66,-239.75,8.91,1580.33,40.86,95.22,1060.34,308.52,-50.85,1028.69,34.43,-8.72,6.46,1436,1383,1406,1393
355220,361,-384,16586,-452.26,-72.36,66.77,-238.17,8.91,1582.28,40.65,90.86,1060.81,308.52,-50.85,1028.69,33.29,7.43,6.52,1435,1384,1394,1405
355226,380,1152,17905,-445.07,-63.32,13.04,-238.17,8.91,1582.28,41.31,87.84,1061.23,308.52,-50.85,1028.69,27.87,2.58,6.53,1431,1388,1397,1401
355233,1415,-189,14802,-494.55,-67.31,69.70,-233.44,8.91,1582.28,40.11,83.41,1061.73,308.52,-50.85,1028.69,38.99,9.00,6.81,1440,1380,1392,1406
355238,197,-426,15502,-469.55,-88.32,39.90,-233.44,8.91,1582.28,39.96,79.46,1061.98,308.52,-50.85,1028.69,33.22,9.32,5.61,1434,1383,1393,1407
355246,414,65,17324,-513.71,-26.87,48.68,-233.44,8.91,1588.12,40.20,74.72,1062.43,308.52,-50.85,1028.69,30.84,11.48,6.57,1433,1386,1391,1408
355252,-932,651,17543,-595.65,22.35,60.12,-233.44,8.91,1588.12,41.54,70.76,1062.91,307.22,-49.55,1029.98,23.76,9.42,6.84,1428,1391,1392,1406
355259,1156,-821,15723,-563.72,9.05,20.48,-230.28,8.91,1592.02,41.16,65.61,1063.10,307.22,-49.55,1029.98,34.07,14.75,4.99,1434,1382,1389,1412
355265,1095,2129,14606,-525.15,54.00,57.73,-230.28,8.91,1592.02,41.06,63.61,1063.59,307.22,-49.55,1029.98,32.54,-0.85,7.15,1435,1385,1400,1398
355271,883,-1157,16425,-631.56,39.37,18.89,-227.13,8.91,1601.75,41.12,57.97,1063.75,307.22,-49.55,1029.98,31.61,18.57,5.00,1433,1384,1386,1415
355277,-365,1658,17684,-618.53,54.27,67.84,-227.13,8.91,1601.75,42.24,55.15,1064.30,307.22,-49.55,1029.98,24.68,5.39,7.61,1429,1391,1394,1403
355284,1016,-1416,16205,-595.65,67.84,14.37,-227.13,8.91,1601.75,42.38,49.76,1064.44,307.22,-49.55,1029.98,31.01,18.07,4.89,1432,1384,1387,1415
355291,-914,1681,18672,-518.23,43.10,45.49,-227.13,8.91,1601.75,43.57,47.39,1064.82,307.22,-49.55,1029.98,24.19,3.26,6.60,1428,1391,1397,1402
355297,683,65,18641,-540.31,26.34,9.84,-225.55,8.91,1601.75,43.29,42.48,1065.20,307.22,-49.55,1029.98,33.21,16.33,6.33,1435,1384,1387,1412
355304,583,-664,18103,-480.45,9.31,1.60,-225.55,8.91,1601.75,43.29,38.24,1065.29,303.31,-54.75,1029.98,31.20,14.66,4.75,1431,1383,1389,1411
355310,76,496,16473,-440.02,-19.95,17.29,-225.55,8.91,1605.65,44.19,36.07,1065.65,303.31,-54.75,1029.98,26.12,1.09,6.30,1428,1388,1398,1399
355316,1755,-2259,15718,-415.81,-37.78,3.46,-225.55,8.91,1605.65,43.38,32.52,1065.65,303.31,-54.75,1029.98,36.29,11.98,4.29,1435,1379,1391,1409
355323,-968,2263,13877,-304.08,-54.00,-1.60,-225.55,7.29,1609.54,43.72,31.63,1065.72,303.31,-54.75,1029.98,29.23,-5.27,4.64,1429,1385,1404,1396
355330,1323,-1372,18134,-303.28,-87.26,-1.33,-225.55,7.29,1609.54,42.59,28.76,1065.71,303.31,-54.75,1029.98,38.40,8.08,4.26,1436,1377,1394,1406
355336,-1761,1800,17311,-210.17,-107.74,-5.32,-223.97,7.29,1605.65,42.92,28.17,1065.73,303.31,-54.75,1029.98,29.45,-6.73,4.39,1429,1384,1405,1395
355342,1927,-1561,21774,-222.14,-92.85,-3.99,-223.97,7.29,1605.65,41.58,25.92,1065.71,303.31,-54.75,1029.98,39.91,4.50,4.19,1437,1376,1397,1404
355349,-1468,194,16612,-144.19,-102.16,-25.81,-223.97,4.05,1605.65,42.24,25.12,1065.58,303.31,-54.75,1029.98,27.69,-5.18,3.54,1427,1385,1405,1397
355355,2506,-60,16206,-59.33,-140.73,-17.03,-223.97,4.05,1605.65,40.05,24.77,1065.50,303.31,-104.10,1029.98,44.51,-13.39,3.78,1441,1372,1411,1390
355362,-584,-772,17097,-8.78,-136.47,-52.67,-217.67,2.43,1605.65,40.30,23.98,1065.17,303.31,-104.10,1029.98,30.21,-11.04,2.39,1429,1382,1410,1393
355368,575,1436,14603,105.61,-134.88,-43.36,-217.67,2.43,1605.65,39.39,25.81,1064.98,303.31,-104.10,1029.98,37.40,-27.10,3.05,1435,1377,1422,1380
355376,759,-1168,15894,106.41,-133.81,-58.26,-223.97,-15.38,1609.54,38.23,25.17,1064.61,303.31,-104.10,1029.98,38.14,-11.99,2.09,1434,1376,1411,1393
355382,1183,1101,12303,215.75,-205.11,-58.79,-223.97,-15.38,1609.54,36.36,27.48,1064.32,303.31,-104.10,1029.98,43.80,-30.33,2.30,1439,1372,1425,1378
355388,1266,-1307,13210,123.44,-134.08,-48.68,-219.24,-15.38,1605.65,34.76,27.12,1063.98,303.31,-104.10,1029.98,41.05,-13.78,2.23,1437,1374,1412,1391
355394,-2974,1867,15778,196.86,-183.03,-57.46,-219.24,-15.38,1605.65,34.74,28.85,1063.65,303.31,-104.10,1029.98,32.39,-26.86,1.96,1430,1380,1423,1381
355401,2941,-580,18087,147.65,-115.72,-31.13,-217.67,-18.62,1599.81,32.64,29.48,1063.47,303.31,-104.10,1029.98,44.15,-19.56,2.99,1440,1372,1416,1386
355407,-1719,-806,13898,227.19,-170.79,-51.88,-217.67,-18.62,1599.81,32.76,30.50,1063.13,302.01,-144.36,1028.69,31.58,-27.03,2.14,1430,1382,1424,1382
355415,2607,956,15580,215.49,-160.15,-38.57,-216.09,-18.62,1605.65,30.39,32.60,1062.91,302.01,-144.36,1028.69,45.49,-32.62,2.88,1442,1372,1427,1377
355421,36,-2316,13558,245.02,-218.41,-46.82,-216.09,-18.62,1605.65,29.39,32.90,1062.59,302.01,-144.36,1028.69,39.01,-23.17,2.06,1436,1376,1421,1385
355428,1083,2398,14170,235.70,-188.88,-51.88,-216.09,-26.72,1605.65,27.89,35.87,1062.28,302.01,-144.36,1028.69,41.15,-38.02,2.34,1438,1375,1432,1373
355433,99,-1983,15582,254.59,-221.61,-61.99,-216.09,-26.72,1605.65,26.97,36.25,1061.89,302.01,-144.36,1028.69,38.86,-24.10,1.49,1435,1376,1422,1385
355440,-170,3516,17387,266.30,-174.78,-75.02,-216.09,-26.72,1599.81,26.23,39.39,1061.41,302.01,-144.36,1028.69,37.15,-39.25,1.29,1434,1377,1434,1373
355446,145,-2798,21641,184.89,-145.79,-61.45,-216.09,-26.72,1599.81,25.77,39.36,1061.03,302.01,-144.36,1028.69,36.06,-21.85,1.51,1433,1378,1420,1386
355453,-64,2121,15648,226.66,-156.43,-92.85,-216.09,-15.38,1599.81,25.33,42.16,1060.45,302.01,-144.36,1028.69,35.63,-37.68,0.61,1432,1378,1433,1375
355460,1699,-1952,17630,161.22,-130.09,-50.01,-216.09,-15.38,1599.81,24.17,41.96,1060.14,296.81,-167.73,1031.27,39.74,-23.96,1.59,1436,1375,1422,1385
355467,-242,595,14745,171.86,-141.26,-110.40,-212.93,-8.91,1599.81,24.53,43.57,1059.47,296.81,-167.73,1031.27,30.74,-34.27,-0.31,1428,1381,1431,1378
355473,712,262,11840,144.99,-121.58,-76.88,-212.93,-8.91,1599.81,23.53,45.11,1059.84,296.81,-167.73,1031.27,39.07,-35.23,5.73,1439,1379,1427,1373
355479,14,-106,15581,163.88,-122.11,-113.86,-209.78,-4.05,1605.65,23.98,45.66,1059.15,296.81,-167.73,1031.27,30.28,-28.68,-0.44,1427,1381,1427,1383
355485,1730,1803,16631,98.70,-100.83,-105.35,-209.78,-4.05,1605.65,22.85,47.30,1058.60,296.81,-167.73,1031.27,40.00,-36.18,-0.23,1435,1374,1432,1377
355492,4,508,19836,48.95,-59.33,-108.01,-209.78,-8.91,1607.59,23.85,47.71,1057.99,296.81,-167.73,1031.27,27.31,-28.09,-0.09,1425,1383,1426,1383
355499,1028,-592,16285,-49.22,-49.75,-131.95,-209.78,-8.91,1607.59,23.48,46.21,1057.30,296.81,-167.73,1031.27,35.14,-16.16,-1.26,1430,1376,1418,1393
355505,-507,-540,16938,-101.36,-13.04,-85.66,-205.05,-8.91,1605.65,24.55,44.81,1056.79,296.81,-167.73,1031.27,26.58,-17.57,0.19,1425,1384,1418,1391
355512,798,29,16926,-126.10,-24.21,-160.42,-205.05,-8.91,1605.65,24.87,42.86,1056.13,294.21,-188.51,1029.98,30.43,-16.12,-0.83,1425,1378,1415,1391
355518,-1219,2710,18115,-179.84,1.06,-85.66,-201.89,-8.91,1597.86,25.81,42.62,1055.62,294.21,-188.51,1029.98,26.90,-26.40,0.23,1423,1382,1423,1382
355524,3052,-329,20911,-222.67,22.35,-178.77,-201.89,-8.91,1597.86,24.86,40.85,1054.62,294.21,-188.51,1029.98,38.32,-16.32,-3.39,1429,1370,1418,1393
355530,-178,382,17570,-298.49,49.75,-108.54,-201.89,-8.91,1597.86,26.51,39.00,1054.05,294.21,-188.51,1029.98,22.56,-16.56,-0.41,1419,1385,1416,1390
355536,1035,-549,16351,-321.63,34.32,-170.79,-201.89,-8.91,1597.86,26.42,35.89,1053.14,294.21,-188.51,1029.98,32.67,-7.28,-2.95,1425,1375,1410,1399
355544,-92,-326,17243,-384.15,81.94,-130.09,-194.01,-8.91,1607.59,28.19,32.50,1052.36,294.21,-188.51,1029.98,22.19,-7.84,-1.60,1418,1384,1410,1398
355550,-798,3230,16347,-400.64,79.01,-148.18,-194.01,-8.91,1607.59,29.22,31.15,1051.55,294.21,-188.51,1029.98,25.31,-17.80,-2.58,1420,1381,1418,1391
355557,2056,-817,15988,-512.11,84.60,-161.75,-194.01,-10.53,1607.59,28.69,26.87,1050.50,294.21,-188.51,1029.98,34.79,-2.01,-3.35,1427,1373,1407,1403
355563,-1797,2828,13807,-508.39,84.33,-143.39,-194.01,-10.53,1607.59,30.06,24.59,1049.66,296.81,-200.20,1031.27,23.76,-13.29,-2.86,1419,1382,1415,1394
355570,2417,-1567,17259,-564.52,112.80,-154.30,-194.01,-10.53,1607.59,29.83,19.72,1048.63,296.81,-200.20,1031.27,33.30,0.28,-3.57,1425,1374,1405,1405
355575,-2424,2171,16874,-644.33,98.43,-151.37,-194.01,-10.53,1607.59,31.40,16.54,1047.77,296.81,-200.20,1031.27,21.93,-5.90,-3.44,1417,1383,1410,1401
355582,3406,-1944,17158,-691.42,85.40,-158.82,-205.05,-10.53,1607.59,30.84,11.00,1046.70,296.81,-200.20,1031.27,35.02,5.16,-4.06,1426,1372,1402,1410
355589,-2404,1140,14400,-729.46,118.12,-169.99,-205.05,-10.53,1607.59,32.65,7.07,1045.71,296.81,-200.20,1031.27,20.33,-0.28,-4.45,1415,1383,1406,1406
355596,2725,-832,13482,-760.85,79.54,-141.26,-205.05,-25.10,1595.91,31.87,1.50,1044.77,296.81,-200.20,1031.27,36.15,6.59,-3.56,1428,1372,1400,1410
355602,-1531,1789,13985,-714.83,69.43,-172.66,-205.05,-25.10,1595.91,33.10,-1.95,1043.79,296.81,-200.20,1031.27,23.81,-1.95,-4.74,1417,1381,1408,1405
355608,681,479,11254,-699.67,95.24,-139.40,-206.62,-26.72,1599.81,33.39,-5.52,1042.93,296.81,-200.20,1031.27,30.04,-3.91,-3.27,1423,1377,1408,1402
355615,-1264,146,19107,-722.01,187.29,-148.45,-206.62,-26.72,1599.81,35.70,-9.56,1042.05,295.51,-215.79,1031.27,17.23,-0.34,-4.03,1413,1386,1406,1405
355621,1381,134,14936,-754.73,104.55,-131.95,-206.62,-26.72,1599.81,35.41,-13.81,1041.24,295.51,-215.79,1031.27,32.82,-0.59,-3.30,1425,1375,1405,1405
355628,573,-1689,15303,-817.25,128.76,-130.89,-206.62,-26.72,1599.81,36.11,-19.94,1040.48,295.51,-215.79,1031.27,26.68,15.30,-3.72,1420,1379,1394,1417
355635,295,567,15545,-772.29,83.27,-144.72,-206.62,-26.72,1595.91,36.85,-23.88,1039.58,295.51,-215.79,1031.27,26.89,-1.00,-4.03,1420,1379,1406,1405
355641,1320,798,12872,-728.13,90.45,-107.48,-206.62,-26.72,1595.91,36.81,-27.21,1038.99,295.51,-215.79,1031.27,31.33,-1.49,-2.82,1424,1376,1406,1403
355647,-1116,1345,17156,-685.57,48.15,-160.95,-206.62,-26.72,1599.81,37.84,-30.75,1037.96,295.51,-215.79,1031.27,25.14,-2.31,-5.00,1418,1379,1408,1405
355653,132,243,19441,-779.74,99.50,-80.08,-206.62,-26.72,1599.81,38.75,-34.40,1037.53,295.51,-215.79,1031.27,25.19,0.64,-1.87,1420,1382,1403,1404
355660,567,-400,19451,-690.09,105.61,-154.30,-209.78,-29.96,1607.59,39.44,-37.75,1036.59,295.51,-215.79,1031.27,26.84,-2.50,-4.67,1420,1378,1408,1404
355666,1070,-118,16501,-698.07,98.43,-96.04,-209.78,-29.96,1607.59,39.52,-41.05,1036.05,298.11,-223.58,1031.27,30.55,-2.16,-2.67,1424,1377,1406,1403
355674,1341,-2365,11125,-629.96,43.63,-139.40,-209.78,-39.68,1599.81,38.99,-46.36,1035.09,298.11,-223.58,1031.27,34.16,9.02,-4.98,1425,1372,1399,1413
355679,2206,890,11134,-590.59,22.08,-116.79,-209.78,-39.68,1599.81,38.27,-49.05,1034.44,298.11,-223.58,1031.27,35.73,-3.88,-3.77,1427,1372,1408,1402
355686,-765,-203,16147,-526.48,21.55,-135.68,-212.93,-34.82,1599.81,39.28,-51.66,1033.58,298.11,-223.58,1031.27,25.48,-6.13,-4.50,1419,1379,1411,1401
355692,1141,874,18046,-444.27,31.39,-149.78,-212.93,-34.82,1599.81,39.18,-53.20,1032.73,298.11,-223.58,1031.27,31.65,-10.79,-5.13,1423,1374,1415,1398
355699,-1353,145,16454,-429.64,45.49,-94.97,-209.78,-39.68,1599.81,40.41,-55.18,1032.13,298.11,-223.58,1031.27,24.11,-9.20,-3.25,1419,1381,1412,1398
355705,2158,488,14877,-337.06,-8.25,-142.33,-209.78,-39.68,1599.81,39.56,-56.30,1031.34,298.11,-223.58,1031.27,36.39,-12.97,-5.02,1427,1371,1416,1396
355712,-1406,703,17012,-342.38,24.74,-82.47,-209.78,-46.15,1605.65,40.51,-57.56,1030.83,298.11,-223.58,1031.27,25.62,-12.89,-2.88,1420,1381,1415,1395
355718,2268,-819,18987,-272.95,9.84,-128.49,-209.78,-46.15,1605.65,39.53,-58.54,1030.09,302.01,-223.58,1031.27,37.45,-13.83,-4.66,1428,1370,1417,1395
355725,-811,-348,17428,-316.31,48.15,-82.74,-209.78,-47.77,1605.65,40.69,-59.66,1029.58,302.01,-223.58,1031.27,24.91,-13.41,-3.03,1419,1381,1415,1394
355731,1865,-1565,18557,-285.98,-54.80,-131.69,-209.78,-47.77,1605.65,39.19,-60.96,1028.86,302.01,-223.58,1031.27,40.90,-11.43,-4.76,1430,1367,1415,1397
355737,117,437,17287,-237.03,28.20,-115.19,-209.78,-47.77,1605.65,39.55,-61.26,1028.16,302.01,-223.58,1031.27,29.44,-17.79,-4.36,1422,1376,1419,1392
355743,-681,1448,14465,-162.55,-59.86,-107.74,-209.78,-47.77,1605.65,39.55,-61.13,1027.60,302.01,-223.58,1031.27,31.46,-20.32,-4.01,1424,1375,1421,1390
355750,1625,1443,16464,-142.06,30.06,-137.27,-209.78,-72.06,1605.65,39.25,-60.85,1026.73,302.01,-223.58,1031.27,33.22,-21.08,-5.43,1424,1373,1423,1390
355757,-2305,-257,19766,-206.71,-3.72,-84.86,-209.78,-72.06,1605.65,40.21,-61.46,1026.27,302.01,-223.58,1031.27,25.38,-15.61,-3.51,1419,1380,1417,1393
355763,3611,198,17064,-170.53,5.59,-137.27,-209.78,-72.06,1605.65,39.05,-61.90,1025.38,302.01,-223.58,1031.27,37.98,-16.92,-5.65,1427,1369,1420,1394
355770,-1881,-867,16348,-156.69,2.39,-93.11,-209.78,-72.06,1605.65,40.23,-62.47,1024.83,302.01,-226.17,1031.27,24.47,-16.32,-4.05,1417,1380,1417,1392
355776,2971,-89,17332,-128.76,36.71,-144.72,-209.78,-73.68,1599.81,39.33,-62.57,1023.89,302.01,-226.17,1031.27,36.58,-19.03,-6.15,1425,1369,1421,1392
355782,-2321,-645,13904,-118.65,76.35,-115.99,-209.78,-73.68,1599.81,40.88,-62.94,1023.20,302.01,-226.17,1031.27,21.50,-17.25,-5.34,1414,1381,1419,1392
355789,2023,1203,15487,-120.78,45.76,-121.31,-209.78,-72.06,1593.96,40.49,-62.60,1022.42,302.01,-226.17,1031.27,33.54,-21.53,-5.39,1423,1372,1422,1389
355795,86,614,14573,-68.64,120.78,-135.41,-209.78,-72.06,1593.96,41.34,-61.86,1021.64,302.01,-226.17,1031.27,25.91,-24.40,-6.12,1417,1377,1425,1387
355802,-83,1878,17826,-118.92,121.84,-111.20,-209.78,-72.06,1597.86,42.32,-61.36,1020.90,302.01,-226.17,1031.27,25.68,-22.59,-5.33,1417,1378,1423,1388
355808,1961,-1289,17718,-137.27,193.94,-155.10,-209.78,-72.06,1597.86,42.32,-61.77,1019.95,302.01,-226.17,1031.27,31.19,-17.14,-7.33,1420,1372,1420,1394
355815,-954,746,17128,-158.56,174.25,-119.45,-209.78,-73.68,1597.86,44.10,-61.68,1019.14,302.01,-226.17,1031.27,21.04,-20.20,-5.98,1413,1381,1422,1391
355821,2832,-2424,17180,-260.71,234.91,-130.36,-209.78,-73.68,1597.86,44.30,-63.65,1018.24,302.01,-222.28,1031.27,29.72,-7.15,-6.99,1420,1374,1413,1402
355828,-530,257,16851,-191.28,205.91,-129.56,-209.78,-73.68,1593.96,46.18,-63.74,1017.36,302.01,-222.28,1031.27,20.22,-18.50,-6.62,1413,1382,1422,1393
355834,2720,755,12207,-281.20,220.01,-155.36,-209.78,-73.68,1593.96,46.53,-64.69,1016.39,302.01,-222.28,1031.27,28.47,-12.84,-7.91,1418,1374,1418,1399
355841,-1472,582,14938,-215.49,230.12,-139.40,-209.78,-73.68,1592.02,48.85,-65.13,1015.42,302.01,-222.28,1031.27,17.31,-16.38,-7.38,1410,1383,1421,1396
355847,899,933,15340,-333.07,229.85,-128.23,-209.78,-73.68,1592.02,49.89,-66.02,1014.62,302.01,-222.28,1031.27,23.75,-13.18,-6.97,1415,1379,1418,1398
355854,-6,66,17773,-307.80,240.49,-139.14,-209.78,-73.68,1593.96,51.62,-66.82,1013.66,302.01,-222.28,1031.27,20.44,-14.22,-7.47,1412,1381,1419,1397
355860,-177,956,19847,-429.11,256.19,-110.40,-209.78,-73.68,1593.96,53.24,-68.24,1012.98,302.01,-222.28,1031.27,19.55,-9.48,-6.55,1412,1382,1415,1400
355866,98,-273,16820,-424.59,272.15,-117.32,-209.78,-81.78,1593.96,55.03,-69.81,1012.16,302.01,-222.28,1031.27,19.59,-9.48,-6.88,1412,1382,1415,1400
355872,-298,916,14656,-448.80,237.03,-122.91,-209.78,-81.78,1593.96,56.65,-71.45,1011.36,304.61,-222.28,1031.27,20.06,-8.28,-7.19,1412,1382,1414,1402
355879,1107,-493,14116,-451.46,208.30,-109.07,-212.93,-83.40,1592.02,57.07,-73.60,1010.59,304.61,-222.28,1031.27,27.36,-5.90,-6.73,1418,1376,1412,1403
355886,-34,1693,11057,-424.85,192.87,-134.08,-212.93,-83.40,1592.02,58.20,-75.01,1009.77,304.61,-222.28,1031.27,22.47,-8.80,-7.72,1414,1379,1415,1402
355893,1118,-235,12720,-455.45,140.20,-74.22,-216.09,-81.78,1593.96,58.24,-77.09,1009.28,304.61,-222.28,1031.27,29.36,-5.72,-5.40,1421,1376,1411,1402
355898,-1274,968,18186,-450.66,192.61,-125.30,-216.09,-81.78,1593.96,59.77,-78.72,1008.52,304.61,-222.28,1031.27,19.60,-6.84,-7.57,1412,1382,1414,1403
355905,535,-1874,12812,-553.35,183.83,-85.40,-216.09,-83.40,1592.02,59.74,-83.13,1007.87,304.61,-222.28,1031.27,29.55,7.79,-6.48,1420,1375,1401,1413
355911,1129,1297,17940,-501.47,185.16,-118.92,-216.09,-83.40,1592.02,60.44,-85.03,1007.14,304.61,-222.28,1031.27,24.89,-4.36,-7.50,1416,1378,1412,1405
355918,487,-1532,16081,-502.80,176.65,-80.34,-216.09,-96.36,1592.02,60.66,-87.50,1006.61,304.61,-222.28,1031.27,28.02,-2.41,-5.94,1419,1376,1409,1405
355924,1758,1213,12734,-436.29,166.27,-91.52,-216.09,-96.36,1592.02,61.00,-89.20,1006.02,304.61,-222.28,1031.27,27.17,-5.63,-6.61,1418,1376,1412,1403
355931,364,-1428,13380,-496.68,183.56,-101.89,-219.24,-96.36,1592.02,61.26,-91.67,1005.33,304.61,-222.28,1031.27,27.76,-2.11,-6.91,1418,1376,1409,1406
355937,1404,1057,9786,-453.59,112.80,-90.19,-219.24,-96.36,1592.02,61.29,-93.39,1004.80,304.61,-222.28,1031.27,29.01,-4.57,-6.54,1420,1375,1411,1404
355944,278,241,14169,-453.05,171.59,-115.99,-216.09,-96.36,1592.02,62.19,-95.19,1004.00,304.61,-222.28,1031.27,24.06,-5.24,-7.74,1415,1378,1412,1404
355950,-363,1736,15656,-396.65,132.22,-72.09,-216.09,-96.36,1592.02,63.03,-96.40,1003.57,304.61,-222.28,1031.27,23.67,-7.40,-6.02,1416,1380,1413,1401
355956,1092,1012,18472,-438.69,214.42,-141.80,-219.24,-96.36,1592.02,64.00,-98.18,1002.55,304.61,-222.28,1031.27,23.52,-5.07,-9.09,1414,1377,1413,1406
355962,313,-1479,19176,-536.06,193.94,-57.73,-219.24,-96.36,1592.02,64.78,-100.27,1002.19,304.61,-222.28,1031.27,23.83,-1.36,-5.78,1416,1380,1408,1406
355970,902,1149,14460,-481.52,211.50,-148.18,-222.40,-99.60,1592.02,65.77,-102.37,1001.10,304.61,-222.28,1031.27,23.32,-2.95,-9.52,1413,1377,1412,1408
355976,-1559,-2370,16507,-529.67,202.72,-81.94,-222.40,-99.60,1592.02,68.20,-105.53,1000.50,304.61,-222.28,1031.27,13.56,5.13,-7.39,1407,1386,1404,1412
355983,1756,1853,17118,-534.99,159.35,-142.33,-222.40,-99.60,1592.02,68.67,-108.03,999.49,304.61,-222.28,1031.27,25.76,0.04,-9.33,1415,1375,1410,1410
355989,-902,-1709,18096,-593.25,193.14,-80.34,-222.40,-99.60,1592.02,70.34,-110.58,998.98,304.61,-222.28,1031.27,17.56,2.69,-7.13,1410,1383,1406,1410
355996,1075,655,16303,-606.02,152.97,-131.95,-222.40,-99.60,1592.02,70.81,-113.56,998.05,304.61,-222.28,1031.27,25.50,3.30,-9.09,1415,1376,1407,1412
356002,125,-767,11452,-577.56,155.63,-93.91,-222.40,-99.60,1592.02,71.40,-115.92,997.47,304.61,-222.28,1031.27,24.23,2.10,-7.68,1415,1378,1407,1410
356008,654,1348,14274,-595.65,89.92,-88.59,-222.40,-104.45,1592.02,71.65,-118.74,996.89,304.61,-222.28,1031.27,26.58,3.09,-7.32,1417,1376,1406,1410
356015,677,375,13021,-541.91,112.27,-108.28,-222.40,-104.45,1592.02,71.88,-120.91,996.25,304.61,-222.28,1031.27,26.46,1.55,-8.25,1416,1376,1408,1410
356022,-1306,741,13965,-554.15,90.72,-76.62,-222.40,-104.45,1592.02,72.87,-123.45,995.75,304.61,-222.28,1031.27,22.34,2.24,-7.03,1414,1380,1406,1410
356028,1469,-1224,19627,-570.91,114.66,-113.33,-222.40,-104.45,1592.02,72.77,-126.09,995.03,308.52,-222.28,1031.27,28.90,4.36,-8.67,1418,1374,1406,1412
356035,-1442,1162,15445,-524.08,90.98,-54.54,-223.97,-107.69,1592.02,73.73,-128.40,994.68,308.52,-222.28,1031.27,22.85,1.56,-6.34,1415,1380,1406,1409
356041,3691,-2095,18453,-567.45,71.30,-99.76,-223.97,-107.69,1592.02,72.97,-131.41,994.07,308.52,-222.28,1031.27,33.11,8.19,-8.34,1422,1371,1403,1415
356047,-1124,426,14840,-495.88,75.29,-46.02,-223.97,-115.79,1592.02,73.79,-133.52,993.79,308.52,-222.28,1031.27,23.59,1.02,-6.05,1416,1380,1406,1408
356054,1943,-1534,13155,-500.67,36.45,-86.19,-223.97,-115.79,1592.02,72.88,-136.02,993.29,308.52,-222.28,1031.27,34.04,5.40,-7.69,1423,1370,1404,1413
356061,-1582,113,12952,-426.18,96.84,-39.11,-222.40,-117.41,1593.96,74.12,-137.75,993.03,308.52,-222.28,1031.27,21.28,-0.59,-6.05,1414,1381,1408,1407
356067,2481,1697,9648,-396.65,27.14,-63.05,-222.40,-117.41,1593.96,73.54,-139.19,992.71,308.52,-222.28,1031.27,31.82,-0.89,-6.68,1422,1373,1408,1407
356073,1000,944,9018,-319.51,57.20,-47.35,-222.40,-123.89,1592.02,73.38,-140.13,992.43,308.52,-222.28,1031.27,29.12,-4.56,-6.21,1420,1375,1411,1404
356080,-776,868,12816,-331.74,55.33,-42.57,-222.40,-123.89,1592.02,73.90,-141.02,992.21,308.52,-217.08,1031.27,25.06,-3.85,-6.02,1416,1378,1409,1403
356086,1988,-1254,14675,-323.76,64.65,-42.83,-223.97,-130.36,1584.23,73.22,-142.43,991.92,308.52,-217.08,1031.27,31.90,-1.27,-6.29,1421,1372,1407,1405
356092,-2026,1156,18767,-299.82,62.78,-45.76,-223.97,-130.36,1584.23,73.95,-143.13,991.68,308.52,-217.08,1031.27,23.55,-4.50,-6.27,1415,1379,1410,1403
356100,1797,-1486,16890,-342.12,78.48,-36.45,-222.40,-131.98,1584.23,73.49,-144.53,991.43,308.52,-217.08,1031.27,30.80,-0.91,-6.14,1420,1373,1407,1406
356106,-2634,1512,19449,-343.71,98.96,-13.57,-222.40,-131.98,1584.23,74.52,-145.50,991.35,308.52,-217.08,1031.27,21.51,-2.45,-5.31,1414,1381,1407,1404
356112,3408,-1654,16346,-339.72,78.21,-22.88,-223.97,-131.98,1584.23,73.83,-147.20,991.17,308.52,-217.08,1031.27,32.07,1.16,-5.82,1422,1372,1405,1407
356118,-1230,1582,14384,-240.76,98.70,-25.01,-223.97,-131.98,1584.23,74.65,-147.49,991.03,308.52,-217.08,1031.27,22.86,-6.48,-5.76,1415,1379,1411,1401
356125,2010,-137,15073,-316.31,94.18,-13.83,-223.97,-131.98,1582.28,74.48,-148.58,990.92,308.52,-217.08,1031.27,28.99,-2.26,-5.41,1420,1375,1407,1404
356131,-1351,911,16691,-292.37,154.03,-14.10,-223.97,-131.98,1582.28,75.74,-149.23,990.78,308.52,-207.99,1031.27,20.45,-3.20,-5.69,1414,1382,1409,1404
356139,1197,-163,17849,-295.56,120.25,7.45,-223.97,-135.22,1582.28,76.05,-149.99,990.81,308.52,-207.99,1031.27,26.17,-2.69,-4.70,1419,1379,1408,1404
356145,1887,-977,19058,-235.17,165.74,9.58,-223.97,-135.22,1582.28,76.36,-150.43,990.80,308.52,-207.99,1031.27,25.87,-4.12,-4.94,1419,1379,1409,1403
356151,-800,1004,16728,-197.13,158.82,-4.26,-223.97,-135.22,1582.28,77.57,-150.44,990.72,308.52,-207.99,1031.27,20.97,-6.86,-5.34,1414,1382,1412,1401
356157,1794,-2236,16375,-208.84,205.64,23.14,-223.97,-135.22,1582.28,77.81,-151.04,990.72,308.52,-207.99,1031.27,26.15,-3.02,-4.81,1419,1379,1408,1404
356164,-1869,500,14464,-144.46,212.56,3.99,-223.97,-135.22,1574.49,79.82,-150.78,990.63,308.52,-207.99,1031.27,16.46,-8.27,-5.38,1411,1386,1413,1400
356170,3967,-1604,12283,-151.11,255.66,31.92,-223.97,-135.22,1574.49,80.21,-151.37,990.62,308.52,-207.99,1031.27,24.90,-3.03,-4.96,1418,1379,1409,1404
356176,-2153,1234,14004,-59.86,238.90,-5.05,-223.97,-135.22,1574.49,82.28,-150.58,990.45,308.52,-207.99,1031.27,15.25,-11.48,-5.88,1410,1386,1416,1398
356184,3933,-342,9988,-80.61,184.63,39.11,-223.97,-135.22,1574.49,82.33,-150.56,990.56,311.12,-123.58,1031.27,27.16,3.14,-4.20,1420,1378,1403,1408
356190,-1874,1486,14111,-12.50,216.55,-5.05,-225.55,-140.08,1574.49,84.24,-149.35,990.41,311.12,-123.58,1031.27,16.75,-3.52,-5.72,1411,1385,1410,1404
356196,561,-142,13095,-34.85,186.75,29.53,-225.55,-140.08,1574.49,84.97,-148.44,990.52,311.12,-123.58,1031.27,22.55,-2.78,-4.22,1417,1382,1408,1404
356203,-751,109,16518,-59.86,202.98,-0.27,-225.55,-140.08,1572.54,86.41,-147.51,990.43,311.12,-123.58,1031.27,18.91,-2.32,-5.39,1413,1384,1408,1405
356209,1444,152,16068,-83.80,159.89,24.21,-225.55,-140.08,1572.54,86.80,-146.97,990.53,311.12,-123.58,1031.27,24.50,-0.56,-4.29,1418,1380,1406,1405
356215,608,-1176,17012,-23.94,155.63,8.78,-225.55,-153.04,1572.54,87.20,-145.95,990.54,311.12,-123.58,1031.27,24.63,-2.97,-4.82,1418,1380,1408,1404
356221,389,295,19013,44.69,93.64,-14.90,-225.55,-153.04,1572.54,87.43,-144.56,990.47,311.12,-123.58,1031.27,25.39,-6.37,-5.32,1418,1379,1411,1402
356229,1256,-1608,19361,16.76,139.40,26.60,-225.55,-153.04,1570.59,87.49,-143.44,990.61,311.12,-123.58,1031.27,26.51,-3.88,-4.12,1420,1379,1409,1403
356235,-1128,319,16556,104.02,88.85,-36.71,-225.55,-153.04,1570.59,88.19,-141.54,990.41,312.42,-56.04,1031.27,22.77,-1.05,-6.09,1415,1380,1408,1406
356242,2052,-260,18039,127.70,76.88,21.55,-225.55,-141.70,1572.54,87.86,-139.62,990.58,312.42,-56.04,1031.27,28.76,-0.66,-3.96,1422,1377,1406,1405
356248,-1501,1569,19418,204.05,27.93,-33.25,-225.55,-141.70,1572.54,88.17,-137.19,990.46,312.42,-56.04,1031.27,24.99,-5.41,-5.62,1417,1379,1411,1403
356254,812,1149,14009,175.58,72.09,40.44,-233.44,-153.04,1572.54,88.24,-134.76,990.78,312.42,-56.04,1031.27,26.50,-4.45,-3.05,1420,1380,1408,1401
356260,-400,-637,13653,269.76,32.46,-27.40,-233.44,-153.04,1572.54,88.32,-131.96,990.70,312.42,-56.04,1031.27,26.39,-8.60,-5.35,1419,1378,1413,1400
356268,1200,928,17462,282.26,27.93,18.89,-225.55,-141.70,1572.54,87.95,-128.78,990.92,312.42,-56.04,1031.27,28.99,-8.89,-3.65,1422,1377,1412,1398
356274,-169,-1548,18047,304.87,-12.77,-13.57,-225.55,-141.70,1572.54,87.45,-125.84,990.95,312.42,-56.04,1031.27,30.17,-10.29,-4.61,1422,1376,1414,1398
356280,939,431,16445,334.67,-31.13,13.57,-230.28,-144.94,1572.54,86.64,-122.29,991.19,312.42,-56.04,1031.27,31.53,-11.62,-3.53,1424,1376,1414,1396
356286,-102,-1729,15878,305.94,-61.99,24.74,-230.28,-144.94,1572.54,85.63,-119.26,991.50,312.42,-52.15,1031.27,33.30,-10.22,-2.87,1426,1375,1413,1397
356293,956,82,16615,416.34,-101.09,-3.19,-227.13,-153.04,1572.54,84.24,-115.23,991.67,312.42,-52.15,1031.27,35.11,-14.76,-3.83,1427,1373,1417,1394
356299,-5,-741,16330,366.86,-66.77,54.54,-227.13,-153.04,1572.54,83.47,-111.87,992.15,312.42,-52.15,1031.27,32.33,-14.11,-1.66,1426,1376,1415,1393
356306,406,-602,16653,475.13,-141.00,-27.40,-230.28,-144.94,1572.54,81.86,-107.42,992.18,312.42,-52.15,1031.27,36.63,-18.10,-4.51,1427,1371,1420,1392
356313,-968,1969,15357,467.69,-94.71,42.30,-230.28,-144.94,1572.54,81.46,-103.41,992.59,312.42,-52.15,1031.27,30.23,-19.33,-2.00,1424,1378,1419,1389
356319,-278,-283,17068,555.48,-142.06,-30.86,-227.13,-141.70,1572.54,80.28,-98.25,992.61,312.42,-52.15,1031.27,34.42,-23.05,-4.57,1425,1372,1424,1388
356325,458,2187,15872,572.24,-90.72,44.69,-227.13,-141.70,1572.54,79.50,-93.58,993.03,312.42,-52.15,1031.27,32.85,-24.35,-1.93,1426,1376,1423,1385
356332,732,-842,18121,534.73,-168.40,-17.82,-227.13,-143.32,1572.54,77.41,-88.96,993.11,312.42,-52.15,1031.27,39.83,-21.42,-4.12,1430,1369,1422,1389
356338,1771,210,16442,500.14,-60.12,17.56,-227.13,-143.32,1572.54,76.16,-84.99,993.33,312.42,-52.15,1031.27,36.03,-20.38,-3.22,1428,1372,1421,1389
356344,-424,-1069,16944,496.15,-78.21,-8.51,-230.28,-141.70,1572.54,75.68,-80.25,993.48,312.42,-52.15,1031.27,31.12,-23.09,-3.71,1424,1376,1423,1388
356350,1905,108,14336,490.83,-15.43,5.59,-230.28,-141.70,1572.54,74.63,-76.62,993.58,312.42,-52.15,1031.27,35.22,-20.21,-3.85,1427,1372,1421,1390
356358,-487,925,12196,462.10,-21.55,16.23,-227.13,-135.22,1572.54,74.64,-72.26,993.81,312.42,-52.15,1031.27,28.50,-22.77,-3.16,1422,1378,1422,1387
356364,1856,-80,13958,471.68,-12.24,-42.57,-227.13,-135.22,1572.54,73.51,-68.83,993.62,312.42,-52.15,1031.27,35.80,-19.62,-5.73,1426,1371,1422,1392
356370,-1535,726,15396,457.84,80.34,17.29,-227.13,-135.22,1584.23,74.74,-64.53,993.81,312.42,-52.15,1031.27,21.61,-22.53,-3.44,1416,1383,1422,1388
356376,2068,-262,19529,430.97,79.28,-35.91,-227.13,-135.22,1584.23,74.16,-61.40,993.63,312.42,-52.15,1031.27,32.31,-18.83,-5.68,1423,1373,1421,1392
356383,-562,167,14643,374.84,130.09,9.05,-225.55,-135.22,1572.54,75.31,-57.51,993.77,312.42,-52.15,1031.27,22.04,-21.08,-3.69,1417,1383,1422,1389
356389,1364,-225,16802,375.11,82.74,-20.22,-225.55,-135.22,1572.54,74.75,-54.56,993.69,311.12,-52.15,1031.27,31.81,-17.74,-5.01,1423,1374,1420,1393
356396,12,429,15474,322.17,185.42,-21.55,-225.55,-135.22,1572.54,75.71,-51.04,993.61,311.12,-52.15,1031.27,22.90,-19.72,-4.95,1416,1381,1421,1391
356402,1663,1082,14152,330.15,136.21,-3.99,-225.55,-135.22,1572.54,75.69,-48.19,993.63,311.12,-52.15,1031.27,28.39,-18.42,-4.41,1421,1377,1420,1392
356409,756,186,15410,262.04,275.34,-42.30,-223.97,-133.60,1572.54,76.60,-45.45,993.36,311.12,-52.15,1031.27,23.06,-16.05,-6.04,1416,1380,1419,1395
356415,-662,-271,12994,242.62,219.74,-9.58,-223.97,-133.60,1572.54,78.60,-43.06,993.39,311.12,-52.15,1031.27,15.11,-16.35,-4.34,1411,1388,1418,1393
356421,2155,-571,12995,172.39,336.80,-57.20,-219.24,-131.98,1570.59,79.51,-41.88,992.93,311.12,-52.15,1031.27,22.68,-7.93,-7.20,1414,1379,1414,1402
356427,-1604,37,13382,149.24,336.00,-36.71,-219.24,-131.98,1570.59,82.51,-40.40,992.71,311.12,-52.15,1031.27,8.26,-10.85,-6.05,1404,1391,1415,1399
356434,2791,316,14843,106.15,374.31,-59.33,-219.24,-122.27,1568.65,83.75,-39.30,992.25,311.12,-52.15,1031.27,20.38,-7.66,-7.25,1413,1381,1414,1402
356441,-1611,320,14799,93.11,424.59,-50.01,-219.24,-122.27,1568.65,87.37,-37.84,991.93,311.12,-52.15,1031.27,5.41,-10.38,-6.63,1402,1393,1416,1400
356448,3933,223,10304,-45.76,426.18,-55.33,-222.40,-119.03,1586.17,88.88,-37.97,991.48,311.12,-52.15,1031.27,18.04,-0.94,-7.36,1411,1383,1409,1407
356453,-756,-2088,13567,-63.05,492.69,-69.43,-222.40,-119.03,1586.17,91.88,-39.58,990.86,311.12,-52.15,1031.27,7.09,8.77,-8.76,1401,1390,1402,1416
356460,114,1656,10794,-33.79,508.39,-64.38,-222.40,-110.93,1568.65,94.88,-38.57,990.43,311.12,-52.15,1031.27,8.94,-7.34,-7.39,1404,1390,1414,1402
356466,-643,126,19223,-70.76,594.58,-87.26,-222.40,-110.93,1568.65,97.91,-37.96,989.91,311.12,-52.15,1031.27,6.22,-5.58,-8.30,1401,1391,1413,1405
356472,-108,511,13625,-89.92,535.52,-57.46,-222.40,-102.83,1566.70,100.80,-37.48,989.50,311.12,-52.15,1031.27,9.14,-4.43,-7.25,1404,1390,1411,1405
356478,561,285,14342,-60.92,644.33,-79.28,-222.40,-102.83,1566.70,103.60,-37.29,988.96,311.12,-52.15,1031.27,7.04,-2.99,-8.56,1401,1390,1411,1407
356486,368,1095,12279,-40.97,594.32,-86.46,-223.97,-102.83,1568.65,106.78,-36.57,988.34,311.12,-52.15,1031.27,6.67,-5.94,-8.62,1401,1391,1414,1405
356492,1810,-322,14927,-191.54,632.36,-63.85,-223.97,-102.83,1568.65,109.52,-37.72,987.80,311.12,-52.15,1031.27,7.80,5.16,-8.43,1401,1389,1404,1412
356499,-580,-527,14819,-101.89,652.84,-82.47,-225.55,-102.83,1566.70,112.61,-38.29,987.12,311.12,-52.15,1031.27,6.65,1.51,-9.10,1400,1389,1407,1410
356504,1598,-310,2549,-99.50,703.12,-56.13,-225.55,-102.83,1566.70,115.55,-39.06,986.61,311.12,-52.15,1031.27,4.36,3.42,-8.63,1398,1391,1405,1411
356511,835,-376,11056,-179.84,668.54,-88.59,-225.55,-102.83,1568.65,118.72,-40.31,985.84,311.12,-52.15,1031.27,5.39,5.58,-9.78,1398,1390,1405,1413
356517,209,-98,8916,-201.65,701.79,-65.18,-225.55,-102.83,1568.65,121.75,-41.28,985.32,311.12,-52.15,1031.27,3.50,4.87,-8.84,1397,1392,1405,1412
356525,-409,798,13509,-169.73,743.03,-80.08,-230.28,-107.69,1566.70,126.06,-41.40,984.70,311.12,-52.15,1031.27,-1.63,-0.64,-9.02,1393,1396,1409,1408
356530,1279,-434,12521,-260.45,761.65,-97.10,-230.28,-107.69,1566.70,129.38,-43.01,983.93,311.12,-52.15,1031.27,0.59,9.17,-10.57,1394,1393,1403,1417
356537,142,-41,13321,-243.95,774.69,-87.79,-233.44,-107.69,1558.91,133.36,-44.35,983.15,311.12,-52.15,1031.27,-0.77,6.54,-10.09,1393,1394,1404,1414
356543,1897,-1001,18194,-283.59,785.59,-86.73,-233.44,-107.69,1558.91,136.98,-46.28,982.38,311.12,-49.55,1031.27,-1.24,11.39,-10.59,1383,1385,1392,1409
356550,-344,-691,14575,-293.43,802.62,-78.21,-242.90,-109.31,1566.70,141.08,-48.42,981.58,311.12,-49.55,1031.27,-2.36,11.70,-10.39,1383,1386,1392,1410
356556,186,1339,17335,-260.18,835.08,-113.60,-242.90,-109.31,1566.70,145.16,-49.30,980.77,311.12,-49.55,1031.27,-5.99,5.57,-11.25,1379,1389,1397,1405
356562,-132,-1336,13960,-304.87,852.63,-94.97,-253.94,-110.93,1558.91,149.68,-52.01,979.75,311.12,-49.55,1031.27,-5.73,15.39,-11.85,1379,1388,1390,1414
356569,1374,2999,14198,-195.27,865.94,-95.77,-253.94,-110.93,1558.91,154.01,-52.41,979.03,311.12,-49.55,1031.27,-8.84,2.85,-10.82,1377,1391,1399,1403
356576,213,-169,14395,-272.15,903.18,-83.53,-257.10,-109.31,1556.96,158.76,-54.05,978.19,311.12,-49.55,1031.27,-8.53,9.79,-11.12,1377,1391,1394,1409
356582,91,-300,13227,-294.50,823.64,-97.90,-257.10,-109.31,1556.96,162.46,-55.71,977.37,311.12,-49.55,1031.27,-5.82,11.37,-11.73,1379,1388,1393,1410
356588,509,-355,16762,-332.01,894.40,-113.60,-257.10,-107.69,1556.96,167.16,-57.91,976.28,311.12,-49.55,1031.27,-9.01,13.32,-12.70,1376,1390,1392,1413
356594,872,-1910,15791,-418.47,830.29,-100.03,-257.10,-107.69,1556.96,171.09,-61.01,975.28,311.12,-49.55,1031.27,-7.22,20.36,-12.81,1376,1387,1386,1417
356601,1134,-37,16239,-335.47,934.57,-111.73,-266.56,-109.31,1556.96,176.18,-63.21,974.15,311.12,-49.55,1031.27,-11.71,13.71,-13.08,1373,1391,1391,1412
356608,-1439,-1463,13230,-397.45,884.82,-103.22,-266.56,-109.31,1556.96,180.42,-66.44,973.06,311.12,-49.55,1031.27,-11.30,22.50,-13.92,1372,1390,1385,1420
356615,2327,822,16508,-303.28,886.95,-130.09,-274.45,-112.55,1556.96,185.18,-68.29,971.82,311.12,-49.55,1031.27,-11.16,12.48,-13.98,1372,1389,1393,1412
356621,-2327,-56,19715,-283.59,885.09,-115.72,-274.45,-112.55,1556.96,189.58,-69.35,970.90,311.12,-49.55,1031.27,-13.28,9.06,-13.08,1371,1392,1395,1409
356627,1558,1975,15540,-245.02,864.34,-124.50,-276.03,-112.55,1549.17,194.36,-70.50,969.75,311.12,-49.55,1031.27,-12.29,8.83,-13.71,1372,1390,1395,1409
356633,-1670,-1222,17742,-201.65,889.88,-129.03,-276.03,-112.55,1549.17,198.44,-71.84,968.59,311.12,-49.55,1031.27,-12.36,11.17,-14.85,1371,1390,1394,1412
356640,918,1525,16189,-202.45,819.91,-130.36,-276.03,-115.79,1539.44,202.90,-72.72,967.41,311.12,-49.55,1031.27,-11.55,7.66,-14.16,1372,1390,1397,1408
356646,357,-1340,16220,-190.75,864.34,-139.93,-276.03,-115.79,1539.44,207.01,-74.19,966.11,311.12,-49.55,1031.27,-12.39,11.81,-15.70,1367,1386,1392,1410
356654,407,288,15565,-156.96,760.59,-147.65,-290.22,-115.79,1537.49,210.89,-75.01,964.79,311.12,-49.55,1031.27,-9.52,7.66,-15.28,1370,1384,1394,1406
356659,1911,-3226,10564,-162.01,822.57,-169.46,-290.22,-115.79,1537.49,214.67,-76.86,963.26,311.12,-49.55,1031.27,-12.52,15.06,-17.94,1365,1384,1391,1414
356666,-546,-368,12929,-67.84,723.08,-144.19,-302.84,-115.79,1537.49,218.20,-77.19,961.97,311.12,-49.55,1031.27,-8.73,5.18,-15.57,1370,1383,1397,1405
356672,2567,21,9924,-62.52,735.58,-171.32,-302.84,-115.79,1537.49,221.36,-77.65,960.62,311.12,-49.55,1031.27,-9.30,6.25,-17.04,1368,1383,1397,1407
356679,-2106,-908,14450,20.48,728.66,-171.32,-304.42,-123.89,1527.75,224.97,-77.48,959.09,311.12,-49.55,1031.27,-9.53,2.40,-17.07,1368,1383,1400,1404
356684,1334,2189,17233,69.43,738.51,-179.57,-304.42,-123.89,1527.75,228.32,-76.70,957.81,311.12,-49.55,1031.27,-11.46,-1.73,-17.04,1367,1384,1403,1400
356691,-1216,-1216,19065,116.79,751.28,-185.96,-304.42,-123.89,1527.75,231.80,-76.13,956.24,311.12,-49.55,1031.27,-11.02,-0.16,-18.26,1366,1383,1403,1403
356698,1427,793,15728,139.14,683.97,-169.46,-304.42,-123.89,1527.75,234.86,-75.09,954.93,311.12,-50.85,1031.27,-9.46,-3.39,-17.10,1368,1383,1404,1399
356705,844,-1408,16016,205.91,732.65,-194.47,-307.57,-123.89,1525.80,238.43,-74.09,953.18,311.12,-50.85,1031.27,-11.05,-2.75,-19.11,1365,1382,1405,1401
356710,-350,147,13776,241.29,658.96,-179.04,-307.57,-123.89,1525.80,241.20,-72.50,951.90,311.12,-50.85,1031.27,-9.30,-7.59,-17.68,1368,1382,1408,1396
356717,915,-1619,15813,214.42,697.01,-187.02,-312.30,-123.89,1519.96,244.57,-71.50,950.19,311.12,-50.85,1031.27,-10.50,-3.00,-19.12,1366,1382,1406,1401
356723,-2103,94,11926,275.61,570.11,-201.39,-312.30,-123.89,1519.96,247.12,-69.28,948.92,311.12,-50.85,1031.27,-8.50,-11.87,-17.94,1368,1381,1412,1393
356730,3127,-269,15182,279.87,520.89,-190.48,-317.03,-125.51,1519.96,249.29,-67.55,947.35,311.12,-50.85,1031.27,-4.51,-7.51,-18.68,1371,1378,1409,1397
356737,-2801,317,15835,351.96,460.50,-206.71,-317.03,-125.51,1519.96,251.22,-64.83,946.10,311.12,-50.85,1031.27,-4.92,-15.36,-18.08,1371,1378,1414,1391
356744,1382,433,16208,337.86,421.93,-188.62,-323.34,-125.51,1519.96,252.77,-62.47,944.65,311.12,-50.85,1031.27,-1.45,-11.54,-18.31,1373,1376,1412,1394
356750,-1684,-921,19008,383.35,364.20,-210.17,-323.34,-125.51,1519.96,253.76,-60.25,943.17,311.12,-49.55,1031.27,0.94,-12.05,-19.45,1374,1373,1413,1394
356756,960,637,16051,399.85,283.59,-185.96,-324.92,-123.89,1518.01,254.36,-57.39,941.84,311.12,-49.55,1031.27,3.47,-14.75,-18.07,1377,1372,1414,1391
356762,395,-1843,16876,417.14,289.71,-203.25,-324.92,-123.89,1518.01,254.88,-55.36,940.39,311.12,-49.55,1031.27,3.54,-11.82,-19.83,1376,1371,1413,1395
356769,-515,1727,15124,450.39,175.85,-190.21,-324.92,-123.89,1516.07,254.96,-51.73,939.18,311.12,-49.55,1031.27,6.30,-19.65,-17.70,1380,1370,1417,1387
356775,2328,-2389,15113,401.98,156.43,-198.19,-324.92,-123.89,1516.07,254.70,-49.91,937.81,311.12,-49.55,1031.27,8.44,-11.39,-19.77,1380,1367,1413,1395
356783,-1161,1941,15361,482.85,35.12,-194.20,-326.50,-125.51,1512.17,253.90,-45.90,936.65,311.12,-49.55,1031.27,11.19,-22.31,-17.69,1384,1366,1419,1385
356789,2869,-1638,12910,432.57,26.60,-190.48,-326.50,-125.51,1512.17,252.84,-43.77,935.40,311.12,-49.55,1031.27,13.63,-14.02,-19.34,1384,1363,1414,1393
356796,-2448,813,14153,495.09,-32.46,-201.39,-337.54,-115.79,1510.22,251.69,-39.59,934.24,311.12,-49.55,1031.27,13.46,-24.08,-18.00,1385,1364,1421,1384
356802,2338,-963,15039,491.10,-63.85,-189.68,-337.54,-115.79,1510.22,249.96,-36.78,932.96,311.12,-49.55,1031.27,17.44,-17.94,-19.26,1387,1360,1417,1390
356809,-1601,1067,14580,552.02,-116.79,-191.28,-335.96,-122.27,1502.43,248.02,-32.40,931.83,311.12,-49.55,1031.27,18.16,-26.00,-18.10,1389,1361,1423,1383
356815,1847,-1189,15521,478.33,-146.32,-187.55,-335.96,-122.27,1502.43,245.91,-29.92,930.64,311.12,-49.55,1031.27,20.97,-17.81,-19.49,1390,1357,1417,1390
356822,-1027,-232,16532,537.12,-150.84,-198.46,-335.96,-115.79,1502.43,243.47,-26.42,929.28,311.12,-49.55,1031.27,21.50,-21.94,-19.70,1390,1357,1421,1387
356828,1261,582,18348,511.58,-188.88,-185.96,-335.96,-115.79,1502.43,241.16,-23.41,928.21,311.12,-49.55,1031.27,23.06,-22.25,-19.13,1392,1356,1420,1386
356835,645,-1967,16258,485.78,-194.74,-190.21,-335.96,-115.79,1500.49,238.52,-20.86,926.78,311.12,-49.55,1031.27,23.27,-17.49,-20.45,1391,1355,1418,1391
356841,-264,2054,13647,491.10,-251.13,-193.94,-335.96,-115.79,1500.49,236.03,-17.39,925.78,311.12,-49.55,1031.27,24.55,-25.61,-18.91,1393,1355,1423,1383
356847,2232,-1129,13817,471.14,-218.94,-187.02,-337.54,-115.79,1494.64,233.26,-14.77,924.46,311.12,-49.55,1031.27,25.10,-19.03,-20.30,1392,1354,1419,1390
356854,-2100,2024,15499,527.28,-258.32,-208.30,-337.54,-115.79,1494.64,230.94,-10.62,923.39,311.12,-50.85,1031.27,23.50,-29.66,-19.39,1392,1356,1426,1381
356860,2916,-1368,14879,462.10,-247.41,-181.17,-335.96,-107.69,1494.64,228.00,-8.10,922.10,311.12,-50.85,1031.27,26.72,-19.50,-20.44,1393,1352,1419,1389
356867,-1225,-755,16661,480.19,-277.21,-205.11,-335.96,-107.69,1494.64,225.21,-5.87,920.78,311.12,-50.85,1031.27,28.07,-19.57,-21.66,1394,1350,1420,1390
356874,1786,-118,15322,432.30,-267.63,-173.72,-335.96,-107.69,1494.64,222.10,-3.28,919.59,311.12,-50.85,1031.27,28.34,-20.44,-20.15,1395,1351,1420,1388
356880,-448,-1158,16536,403.31,-261.51,-188.62,-335.96,-107.69,1494.64,219.40,-1.56,918.32,311.12,-50.85,1031.27,27.88,-16.64,-21.49,1394,1351,1418,1392
356886,692,1495,15366,429.64,-304.34,-185.42,-335.96,-107.69,1502.43,216.06,1.59,917.13,311.12,-50.85,1031.27,29.97,-23.80,-20.29,1396,1350,1423,1386
356892,494,-759,16306,376.44,-297.42,-169.99,-335.96,-107.69,1502.43,213.13,3.33,916.03,311.12,-50.85,1031.27,30.31,-17.52,-20.82,1396,1349,1418,1391
356899,-273,1433,15447,336.00,-328.28,-190.75,-335.96,-102.83,1498.54,209.68,5.95,914.82,311.12,-50.85,1031.27,31.38,-21.38,-20.67,1397,1349,1421,1388
356905,878,-716,18882,339.19,-304.34,-161.22,-335.96,-102.83,1498.54,206.57,7.58,913.73,311.12,-50.85,1031.27,31.38,-16.90,-20.74,1397,1349,1418,1392
356913,-660,1007,15227,294.23,-335.47,-205.11,-331.23,-93.12,1502.43,203.02,9.79,912.39,311.12,-50.85,1031.27,32.69,-19.54,-21.70,1397,1347,1420,1390
356918,641,-170,16210,256.46,-290.51,-138.07,-331.23,-93.12,1502.43,200.09,11.01,911.50,311.12,-50.85,1031.27,31.74,-15.10,-19.98,1398,1349,1416,1392
356925,-194,116,15202,212.56,-344.78,-205.38,-326.50,-93.12,1498.54,196.40,12.09,910.04,311.12,-50.85,1031.27,34.28,-13.53,-22.67,1398,1345,1416,1396
356931,1442,-97,13172,121.58,-354.62,-137.01,-326.50,-93.12,1498.54,193.11,12.53,909.16,311.12,-50.85,1031.27,35.03,-10.43,-20.21,1400,1346,1412,1396
356938,153,123,15827,115.19,-358.35,-183.03,-326.50,-93.12,1498.54,189.31,12.98,907.85,311.12,-50.85,1031.27,35.65,-10.15,-22.07,1399,1344,1413,1398
356943,1813,600,7617,54.27,-354.89,-162.28,-326.50,-93.12,1498.54,186.11,13.29,906.90,311.12,-50.85,1031.27,35.81,-9.72,-21.11,1400,1345,1412,1397
356951,-267,282,14311,7.71,-340.79,-134.35,-326.50,-91.50,1498.54,182.40,13.18,905.95,311.12,-50.85,1031.27,35.86,-7.04,-20.24,1401,1345,1410,1399
356957,546,420,15284,-37.78,-334.40,-175.05,-326.50,-91.50,1498.54,178.97,12.79,904.80,308.52,-49.55,1031.27,35.68,-5.20,-21.91,1399,1344,1409,1401
356964,-838,368,17201,-101.09,-319.24,-123.71,-326.50,-91.50,1502.43,175.44,12.01,903.97,308.52,-49.55,1031.27,35.59,-3.04,-19.89,1401,1346,1406,1402
356970,1546,-1212,15825,-167.07,-325.36,-189.95,-326.50,-91.50,1502.43,172.39,10.33,902.72,308.52,-49.55,1031.27,35.59,3.35,-23.30,1398,1343,1404,1409
356977,-436,-805,16129,-226.66,-346.91,-112.80,-321.77,-91.50,1508.28,168.95,7.97,901.85,308.52,-49.55,1031.27,36.29,6.56,-20.52,1401,1345,1399,1409
356982,1436,77,17034,-191.54,-338.66,-167.87,-321.77,-91.50,1508.28,165.74,6.61,900.82,308.52,-49.55,1031.27,37.48,1.86,-22.15,1400,1343,1404,1407
356989,-952,326,14716,-220.54,-289.18,-130.09,-315.46,-93.12,1518.01,162.43,5.25,900.02,308.52,-49.55,1031.27,35.90,1.00,-20.20,1401,1345,1403,1405
356996,175,1555,18724,-173.72,-307.00,-140.20,-315.46,-93.12,1518.01,159.52,4.68,899.27,308.52,-49.55,1031.27,36.00,-2.99,-20.51,1401,1345,1407,1402
357003,51,-850,15314,-266.03,-289.98,-149.51,-315.46,-93.12,1518.01,156.33,2.04,898.16,308.52,-49.55,1031.27,35.93,8.45,-22.16,1399,1344,1399,1412
357009,423,2156,18176,-281.73,-313.92,-107.48,-315.46,-93.12,1518.01,153.44,1.01,897.63,308.52,-49.55,1031.27,36.17,0.16,-19.26,1402,1346,1403,1404
357016,1096,-2003,16011,-314.45,-258.58,-153.77,-313.88,-93.12,1527.75,150.56,-2.13,896.45,308.52,-49.55,1031.27,34.88,11.69,-22.66,1398,1344,1397,1415
357021,-148,1840,15461,-275.88,-269.76,-112.80,-313.88,-93.12,1527.75,148.22,-2.91,895.94,308.52,-49.55,1031.27,33.99,-0.66,-19.47,1400,1347,1404,1403
357028,1792,-1569,14939,-308.86,-233.31,-145.25,-313.88,-93.12,1527.75,145.37,-5.77,894.87,308.52,-49.55,1031.27,35.32,10.52,-22.28,1399,1344,1398,1414
357035,-1417,700,13951,-212.29,-253.26,-101.89,-313.88,-93.12,1527.75,144.03,-5.94,894.50,308.52,-49.55,1031.27,28.26,-4.15,-18.79,1396,1352,1406,1400
357042,1464,-454,14791,-280.13,-189.95,-130.36,-313.88,-96.36,1527.75,141.32,-8.17,893.59,308.52,-49.55,1031.27,34.82,7.24,-21.46,1399,1345,1400,1411
357048,-1459,-511,15464,-205.64,-193.67,-133.28,-313.88,-96.36,1527.75,140.60,-10.57,892.82,308.52,-49.55,1031.27,24.72,10.48,-21.51,1391,1353,1397,1413
357054,1803,1064,16035,-238.37,-146.85,-118.38,-312.30,-99.60,1527.75,138.34,-11.78,892.11,308.52,-49.55,1031.27,33.02,2.20,-20.65,1398,1347,1403,1406
357060,-238,-2724,16600,-220.27,-161.22,-136.47,-312.30,-99.60,1527.75,136.81,-14.43,891.13,308.52,-50.85,1031.27,29.93,11.70,-22.77,1394,1348,1397,1415
357067,985,1971,15987,-209.10,-115.46,-109.61,-312.30,-99.60,1527.75,135.07,-14.96,890.55,308.52,-50.85,1031.27,30.51,-1.31,-20.15,1397,1350,1405,1403
357073,-666,-2792,16624,-230.92,-64.91,-127.16,-312.30,-99.60,1527.75,134.38,-17.63,889.65,308.52,-50.85,1031.27,25.25,12.88,-22.65,1391,1352,1396,1416
357081,311,2326,14734,-151.90,-83.00,-108.54,-312.30,-101.21,1525.80,133.19,-17.54,889.11,308.52,-50.85,1031.27,27.74,-4.49,-20.13,1394,1352,1408,1401
357086,1369,-1443,15195,-169.46,-15.96,-106.68,-312.30,-101.21,1525.80,131.99,-19.11,888.43,308.52,-50.85,1031.27,28.83,6.16,-21.46,1394,1350,1400,1410
357093,-1104,201,15783,-80.61,-58.00,-137.27,-312.30,-106.07,1527.75,131.55,-18.43,887.80,308.52,-50.85,1031.27,23.69,-7.72,-20.76,1391,1354,1411,1399
357099,2085,875,16868,-154.83,31.39,-108.28,-312.30,-106.07,1527.75,130.63,-18.99,887.23,308.52,-50.85,1031.27,27.22,-0.29,-20.94,1393,1352,1405,1404
357105,-1040,-2005,16610,-69.97,22.08,-123.71,-312.30,-107.69,1525.80,130.69,-20.94,886.26,308.52,-50.85,1031.27,21.02,7.32,-22.84,1387,1355,1401,1412
357112,1576,2016,15430,-100.03,97.37,-90.19,-312.30,-107.69,1525.80,130.38,-20.77,885.80,303.31,-50.85,1031.27,22.60,-4.63,-20.18,1390,1356,1408,1401
357118,-440,-3438,16349,-58.53,85.40,-100.56,-305.99,-106.07,1525.80,130.63,-22.59,884.95,303.31,-50.85,1031.27,19.32,6.80,-22.31,1386,1357,1401,1411
357125,1709,1994,14754,-40.70,106.15,-114.39,-305.99,-106.07,1525.80,130.36,-22.12,884.37,303.31,-50.85,1031.27,22.44,-6.42,-21.34,1389,1355,1410,1400
357132,-774,-1421,15844,-40.17,173.45,-90.45,-302.84,-107.69,1533.59,131.02,-23.76,883.62,303.31,-50.85,1031.27,17.00,5.84,-21.89,1385,1359,1401,1410
357138,53,1367,17079,42.83,173.45,-116.26,-302.84,-107.69,1533.59,131.37,-22.60,883.05,303.31,-50.85,1031.27,18.46,-10.71,-21.40,1386,1358,1413,1397
357144,1234,520,16475,25.01,249.27,-87.26,-302.84,-109.31,1533.59,131.80,-21.99,882.50,303.31,-50.85,1031.27,18.18,-6.84,-20.89,1387,1359,1410,1399
357150,-376,-443,16432,109.07,251.13,-120.25,-302.84,-109.31,1533.59,132.09,-21.41,881.82,303.31,-50.85,1031.27,18.68,-7.26,-22.27,1386,1357,1411,1400
357157,1717,713,15653,37.78,309.66,-74.22,-302.84,-109.31,1533.59,132.95,-20.71,881.34,303.31,-50.85,1031.27,15.76,-7.47,-20.60,1385,1361,1410,1399
357164,-783,-1943,15501,139.93,319.51,-102.16,-302.84,-109.31,1533.59,134.61,-21.14,880.53,303.31,-49.55,1031.27,10.15,-0.77,-23.01,1379,1363,1407,1406
357171,2111,701,14881,89.39,360.47,-81.41,-301.26,-107.69,1533.59,135.77,-20.18,880.00,303.31,-49.55,1031.27,13.64,-8.88,-21.14,1383,1362,1412,1398
357176,-636,-2329,15630,149.78,387.61,-79.54,-301.26,-107.69,1533.59,137.69,-20.50,879.34,303.31,-49.55,1031.27,7.64,-1.45,-22.40,1377,1366,1407,1405
357183,886,561,14183,189.68,446.14,-71.30,-301.26,-109.31,1533.59,139.46,-18.75,878.90,303.31,-49.55,1031.27,9.70,-13.52,-20.81,1380,1365,1415,1394
357189,-393,-613,12457,166.80,478.33,-53.47,-301.26,-109.31,1533.59,141.23,-18.33,878.50,303.31,-49.55,1031.27,8.15,-6.43,-20.85,1379,1366,1410,1400
357196,808,-52,13848,163.08,455.71,-88.32,-301.26,-109.31,1535.54,142.97,-17.16,877.88,303.31,-49.55,1031.27,9.49,-10.42,-21.85,1379,1365,1413,1397
357201,1549,765,19783,221.61,519.03,-59.33,-301.26,-109.31,1535.54,144.95,-15.51,877.55,303.31,-49.55,1031.27,6.48,-14.56,-20.60,1378,1368,1416,1393
357209,-989,-486,14012,279.60,557.60,-78.75,-301.26,-107.69,1535.54,147.63,-14.44,876.94,303.31,-49.55,1031.27,3.84,-10.12,-21.88,1375,1369,1413,1398
357215,828,-60,13555,222.94,600.70,-51.61,-301.26,-107.69,1535.54,150.19,-13.00,876.58,305.92,-49.55,1031.27,3.42,-12.99,-20.68,1375,1370,1415,1395
357222,-1121,500,15018,325.09,614.00,-77.68,-302.84,-106.07,1535.54,153.57,-9.77,876.23,305.92,-49.55,1031.27,-0.77,-23.00,-20.58,1372,1373,1422,1387
357228,1859,627,9425,264.17,606.29,-39.37,-302.84,-106.07,1535.54,156.07,-7.93,876.01,305.92,-49.55,1031.27,2.27,-16.58,-20.02,1375,1371,1417,1391
357235,-18,325,11269,261.24,613.20,-93.38,-302.84,-106.07,1535.54,159.00,-5.81,875.41,305.92,-49.55,1031.27,1.58,-16.82,-21.96,1373,1371,1418,1393
357240,1495,-1300,5774,255.13,594.58,-68.10,-302.84,-106.07,1535.54,161.54,-4.97,874.89,305.92,-49.55,1031.27,1.21,-10.67,-22.09,1373,1371,1414,1397
357248,-292,15,10839,203.25,590.06,-75.82,-302.84,-106.07,1533.59,164.23,-3.63,874.38,305.92,-49.55,1031.27,2.15,-12.92,-21.63,1374,1370,1415,1395
357254,363,-594,14226,127.43,598.57,-68.10,-302.84,-106.07,1533.59,166.69,-3.27,873.92,305.92,-49.55,1031.27,1.23,-7.85,-21.82,1373,1371,1411,1399
357261,354,87,13834,139.40,586.87,-70.23,-302.84,-97.98,1529.70,169.36,-2.34,873.44,305.92,-49.55,1031.27,1.62,-10.75,-21.58,1373,1371,1413,1397
357267,554,-1212,17038,64.91,589.00,-88.85,-302.84,-97.98,1529.70,171.91,-2.55,872.79,307.22,-49.55,1028.69,0.76,-4.41,-22.63,1372,1371,1409,1403
357274,-842,-115,14404,69.70,575.16,-60.92,-307.57,-96.36,1519.96,174.51,-2.32,872.36,307.22,-49.55,1028.69,1.58,-6.93,-21.15,1374,1371,1410,1400
357279,1136,295,16755,29.53,558.67,-101.09,-307.57,-96.36,1519.96,176.68,-2.16,871.76,307.22,-49.55,1028.69,1.94,-6.67,-22.62,1373,1370,1411,1401
357286,-603,148,14755,24.74,549.36,-46.82,-310.73,-96.36,1519.96,179.05,-1.96,871.47,307.22,-49.55,1028.69,2.04,-6.85,-20.49,1374,1371,1410,1399
357293,130,1938,15211,59.86,516.64,-96.84,-310.73,-96.36,1519.96,181.22,-0.95,871.02,307.22,-49.55,1028.69,1.38,-12.24,-21.77,1373,1371,1415,1396
357300,-1353,260,15560,-11.97,554.68,-36.45,-312.30,-94.74,1518.01,183.69,-0.82,870.85,307.22,-49.55,1028.69,1.19,-6.57,-19.90,1374,1372,1409,1399
357306,835,1060,15096,78.75,473.27,-92.58,-312.30,-94.74,1518.01,185.41,-0.09,870.36,307.22,-49.55,1028.69,3.81,-10.56,-22.11,1375,1369,1414,1397
357312,1018,-204,16092,-36.45,474.60,-48.42,-318.61,-88.26,1512.17,187.35,-0.52,870.00,307.22,-49.55,1028.69,3.83,-3.53,-20.98,1375,1370,1407,1402
357319,-7,-152,17820,-33.52,405.70,-56.93,-318.61,-88.26,1512.17,188.65,-0.90,869.63,308.52,-49.55,1028.69,6.46,-3.50,-21.35,1377,1367,1408,1402
357325,1379,-1055,17004,-52.67,443.74,-53.21,-318.61,-88.26,1512.17,190.40,-1.71,869.19,308.52,-49.55,1028.69,4.55,-1.29,-21.56,1376,1369,1406,1404
357331,-1471,-1002,12567,-39.11,364.46,-36.45,-318.61,-88.26,1512.17,192.00,-3.05,868.78,308.52,-49.55,1028.69,3.85,2.93,-21.80,1375,1369,1403,1408
357339,2467,-1431,14394,-64.11,344.25,-76.62,-318.61,-88.26,1512.17,193.07,-4.00,868.16,308.52,-49.55,1028.69,7.95,-0.21,-22.67,1377,1365,1406,1406
357345,-3294,1189,11086,-45.49,303.54,-28.20,-318.61,-88.26,1512.17,195.79,-3.54,868.14,308.52,-49.55,1028.69,-3.73,-8.46,-19.41,1371,1377,1410,1397
357351,2638,-687,15081,-40.97,279.33,-70.76,-326.50,-88.26,1512.17,196.37,-4.11,867.60,308.52,-49.55,1028.69,10.27,-2.30,-22.29,1379,1364,1408,1404
357357,-2008,1591,17884,-20.22,277.74,-18.89,-326.50,-88.26,1512.17,197.38,-3.23,867.70,308.52,-49.55,1028.69,7.01,-11.07,-18.74,1380,1369,1412,1395
357364,1401,357,18491,-20.48,241.56,-63.05,-326.50,-88.26,1512.17,197.67,-3.36,867.30,308.52,-49.55,1028.69,11.60,-4.81,-21.70,1381,1363,1409,1402
357370,-462,-738,16032,6.12,262.57,-32.72,-326.50,-88.26,1512.17,198.15,-3.78,867.01,307.22,-50.85,1028.69,10.24,-3.17,-21.12,1380,1364,1407,1402
357377,-144,1219,15235,17.29,200.32,-42.03,-326.50,-88.26,1512.17,198.29,-3.15,866.85,307.22,-50.85,1028.69,12.24,-9.38,-20.37,1382,1364,1411,1397
357383,2915,-2630,11389,-14.37,177.98,-60.66,-326.50,-88.26,1512.17,198.32,-3.90,866.36,307.22,-50.85,1028.69,12.87,-0.91,-22.56,1381,1361,1407,1405
357390,-1777,1557,14626,48.42,124.50,-8.25,-334.38,-83.40,1512.17,198.58,-2.33,866.56,307.22,-50.85,1028.69,11.58,-14.59,-18.33,1383,1366,1414,1391
357396,2140,-2130,14333,16.76,142.33,-54.27,-334.38,-83.40,1512.17,198.36,-2.82,866.13,307.22,-50.85,1028.69,14.43,-2.68,-22.25,1383,1360,1408,1404
357402,-1978,1232,17364,73.69,122.11,-7.18,-334.38,-85.02,1506.33,198.33,-1.25,866.31,307.22,-50.85,1028.69,13.26,-14.66,-18.49,1385,1364,1414,1392
357408,3302,-751,16421,54.27,104.28,-45.49,-334.38,-85.02,1506.33,197.78,-1.14,866.00,307.22,-50.85,1028.69,16.58,-6.65,-21.46,1385,1359,1410,1400
357415,-1900,-131,16387,107.48,91.52,-21.28,-331.23,-85.02,1512.17,197.07,-0.74,865.83,307.22,-50.85,1028.69,17.14,-8.28,-20.52,1386,1360,1411,1398
357422,1576,160,15265,50.55,37.24,-19.95,-331.23,-85.02,1512.17,196.07,-0.42,865.71,307.22,-49.55,1028.69,19.41,-7.83,-20.26,1388,1358,1410,1398
357429,-20,-1448,15336,109.87,21.81,-14.10,-331.23,-86.64,1506.33,195.06,-0.40,865.48,307.22,-49.55,1028.69,19.08,-5.99,-20.85,1387,1358,1409,1400
357435,846,1409,12843,106.15,-35.12,-0.53,-331.23,-86.64,1506.33,193.75,0.76,865.59,307.22,-49.55,1028.69,21.78,-13.27,-18.93,1391,1357,1413,1393
357441,269,-1494,14727,162.55,-26.87,-9.84,-335.96,-85.02,1504.38,192.40,1.15,865.39,307.22,-49.55,1028.69,21.25,-8.23,-20.68,1389,1356,1411,1398
357447,-806,2184,17093,168.93,-86.99,9.58,-335.96,-85.02,1504.38,191.07,3.08,865.63,307.22,-49.55,1028.69,22.33,-18.52,-18.03,1392,1358,1417,1388
357454,1296,-1349,16035,165.47,-75.55,1.60,-335.96,-86.64,1504.38,189.29,3.71,865.56,307.22,-49.55,1028.69,24.01,-9.89,-20.00,1392,1355,1412,1396
357460,-1187,1512,16207,229.05,-105.08,-3.99,-335.96,-86.64,1504.38,187.84,5.98,865.72,307.22,-49.55,1028.69,23.48,-20.99,-18.54,1392,1356,1419,1387
357467,2212,-461,14542,153.23,-122.64,21.81,-331.23,-86.64,1502.43,185.68,6.85,865.84,307.22,-49.55,1028.69,26.67,-11.66,-18.88,1395,1354,1412,1394
357474,-433,-108,15586,239.70,-167.60,-10.91,-331.23,-86.64,1502.43,183.34,8.18,865.74,307.22,-49.55,1028.69,28.68,-14.77,-20.10,1395,1351,1415,1393
357480,954,-25,15139,154.56,-151.37,33.79,-335.96,-86.64,1504.38,180.95,9.19,865.97,307.22,-49.55,1028.69,28.41,-12.63,-18.28,1396,1353,1412,1393
357486,-1151,-1123,17697,230.92,-156.43,-23.14,-335.96,-86.64,1504.38,179.19,9.66,865.69,307.22,-49.55,1028.69,26.50,-10.10,-21.32,1393,1352,1413,1397
357493,742,1042,14779,190.48,-98.17,43.63,-335.96,-86.64,1504.38,177.28,11.39,866.07,307.22,-49.55,1028.69,26.53,-17.14,-17.36,1396,1355,1415,1389
357498,512,-993,13543,203.25,-150.31,24.21,-335.96,-86.64,1504.38,175.33,12.06,866.12,307.22,-49.55,1028.69,28.21,-11.69,-19.15,1396,1352,1412,1394
357506,950,881,15018,188.62,-148.98,19.15,-332.81,-85.02,1504.38,172.97,13.69,866.32,307.22,-49.55,1028.69,29.12,-16.57,-18.41,1397,1352,1416,1390
357512,-494,-567,15187,119.18,-145.25,47.35,-332.81,-85.02,1504.38,171.05,13.83,866.53,307.22,-49.55,1028.69,28.39,-8.52,-18.16,1396,1353,1409,1396
357519,800,559,15734,188.62,-140.20,14.10,-332.81,-86.64,1504.38,168.73,15.29,866.66,307.22,-49.55,1028.69,29.44,-15.87,-18.69,1397,1352,1415,1391
357525,-462,-888,15895,84.60,-125.30,85.93,-332.81,-86.64,1504.38,166.99,15.09,867.10,307.22,-50.85,1028.69,27.41,-6.69,-16.75,1397,1355,1407,1396
357532,1556,-855,16477,144.46,-164.67,18.36,-332.81,-86.64,1504.38,164.56,15.66,867.16,307.22,-50.85,1028.69,30.53,-11.13,-19.05,1397,1350,1412,1395
357537,-1442,1338,16945,55.60,-90.45,86.99,-332.81,-86.64,1504.38,163.56,17.21,867.93,307.22,-50.85,1028.69,23.53,-17.95,-14.39,1396,1359,1413,1386
357544,1064,-855,16963,79.28,-147.91,42.83,-332.81,-83.40,1504.38,161.29,17.27,868.15,307.22,-50.85,1028.69,30.14,-8.54,-18.02,1398,1352,1409,1396
357551,-179,2209,15583,59.06,-63.05,86.19,-332.81,-83.40,1504.38,160.17,18.70,868.87,307.22,-50.85,1028.69,24.63,-17.29,-14.72,1396,1358,1413,1387
357558,-480,-253,15423,27.14,-114.66,66.51,-332.81,-83.40,1504.38,158.15,18.33,869.29,307.22,-50.85,1028.69,29.03,-6.23,-16.80,1398,1353,1406,1397
357564,1895,-52,14286,39.37,-60.12,81.94,-332.81,-83.40,1504.38,156.60,18.52,869.78,307.22,-50.85,1028.69,27.92,-9.57,-15.94,1398,1355,1408,1394
357570,-594,137,15794,-21.81,-106.95,105.88,-331.23,-83.40,1506.33,154.50,18.25,870.57,307.22,-50.85,1028.69,29.93,-6.79,-14.63,1400,1354,1405,1395
357577,2859,-1830,15228,-39.90,-113.86,58.79,-331.23,-83.40,1506.33,152.67,17.49,870.86,309.82,-50.85,1031.27,29.97,-3.61,-17.48,1398,1352,1405,1399
357583,-1373,1128,16078,-43.90,-95.51,126.37,-331.23,-75.30,1512.17,151.83,18.69,872.03,309.82,-50.85,1031.27,23.62,-14.96,-12.60,1397,1361,1410,1387
357590,1984,-652,15893,-89.12,-52.14,72.09,-331.23,-75.30,1512.17,150.35,17.90,872.44,309.82,-50.85,1031.27,28.45,-3.28,-16.48,1398,1354,1404,1399
357597,-1721,1172,15373,-53.21,-43.10,128.76,-331.23,-75.30,1512.17,150.52,18.93,873.61,309.82,-50.85,1031.27,18.15,-14.14,-12.45,1393,1365,1409,1387
357603,2249,-443,13929,-54.27,-85.93,93.64,-331.23,-75.30,1512.17,148.83,18.46,874.15,309.82,-50.85,1031.27,30.05,-5.31,-15.40,1400,1354,1405,1396
357609,-1542,431,15463,-71.83,-39.11,121.84,-329.65,-83.40,1512.17,149.51,18.82,875.42,309.82,-50.85,1031.27,15.51,-10.34,-11.73,1392,1368,1406,1390
357615,957,-11,16526,-66.24,-97.90,99.50,-329.65,-83.40,1512.17,147.73,18.36,876.03,309.82,-50.85,1031.27,30.73,-5.37,-14.77,1401,1354,1404,1396
357622,834,-1112,15671,-84.07,-55.87,105.61,-329.65,-83.40,1512.17,146.18,17.13,876.69,309.82,-50.85,1031.27,28.18,-1.39,-14.92,1399,1355,1401,1399
357628,-791,1081,20345,-105.08,-93.64,135.14,-329.65,-83.40,1512.17,144.66,17.45,877.76,307.22,-52.15,1031.27,28.72,-10.28,-11.90,1402,1357,1406,1390
357636,773,-1126,16234,-87.79,-36.18,117.05,-329.65,-73.68,1510.22,143.23,16.19,878.51,307.22,-52.15,1031.27,27.45,-1.31,-14.23,1399,1357,1401,1399
357642,-729,2823,14883,-28.73,-80.34,141.26,-329.65,-73.68,1510.22,142.55,17.33,879.56,307.22,-52.15,1031.27,24.05,-15.59,-11.56,1398,1361,1409,1386
357649,2231,-1854,13008,-95.51,-69.97,133.55,-326.50,-73.68,1510.22,140.90,16.07,880.40,307.22,-52.15,1031.27,29.08,-1.18,-13.48,1401,1356,1400,1398
357654,-1462,1044,8387,9.05,-102.69,137.80,-326.50,-73.68,1510.22,141.06,17.14,881.39,307.22,-52.15,1031.27,18.98,-15.11,-11.73,1394,1365,1409,1386
357661,2198,-997,12931,-71.03,-72.89,160.42,-326.50,-73.68,1512.17,139.27,16.34,882.45,307.22,-52.15,1031.27,30.11,-3.73,-11.98,1403,1356,1401,1395
357667,-2209,312,10005,0.53,-106.15,133.02,-326.50,-73.68,1512.17,139.79,16.62,883.31,307.22,-52.15,1031.27,16.80,-10.01,-12.34,1392,1366,1406,1390
357675,2003,-174,14191,-117.32,-115.46,169.73,-326.50,-73.68,1510.22,137.64,15.83,884.47,307.22,-52.15,1031.27,32.35,-3.76,-11.12,1405,1355,1400,1394
357681,-577,-1285,15322,-42.83,-86.99,152.70,-326.50,-73.68,1510.22,136.67,14.46,885.34,285.11,-52.15,1031.27,23.60,0.11,-12.33,1397,1361,1398,1398
357687,554,1288,14635,-89.39,-118.12,155.63,-326.50,-65.59,1510.22,134.78,14.84,886.56,285.11,-52.15,1031.27,28.61,-10.13,-10.57,1402,1358,1405,1389
357693,-441,-1597,19886,-74.49,-68.10,181.97,-326.50,-65.59,1510.22,133.82,13.45,887.57,285.11,-52.15,1031.27,24.21,0.89,-10.86,1399,1362,1396,1398
357700,-1073,1798,16031,-4.26,-145.52,146.85,-326.50,-65.59,1504.38,132.89,14.88,888.77,285.11,-52.15,1031.27,23.62,-16.26,-10.20,1399,1363,1409,1384
357706,2085,79,16026,-85.93,-113.06,195.53,-326.50,-65.59,1504.38,131.00,14.52,889.97,285.11,-52.15,1031.27,30.46,-5.71,-9.33,1405,1358,1400,1391
357712,-1294,226,15962,-42.57,-163.61,149.24,-326.50,-65.59,1502.43,131.02,14.90,891.33,285.11,-52.15,1031.27,18.39,-10.08,-9.36,1396,1367,1404,1388
357719,2792,-214,13331,-144.99,-128.49,200.32,-326.50,-65.59,1502.43,129.05,14.09,892.54,285.11,-52.15,1031.27,31.25,-2.84,-8.97,1406,1358,1398,1393
357726,-1843,-508,16553,-82.47,-165.21,156.43,-326.50,-65.59,1504.38,129.05,12.98,893.62,285.11,-52.15,1031.27,18.69,-1.61,-10.52,1395,1366,1398,1395
357732,1995,137,14241,-159.62,-162.28,180.10,-326.50,-65.59,1504.38,126.78,12.18,894.78,243.50,-52.15,1029.98,27.81,-2.86,-9.16,1403,1360,1398,1393
357739,-1426,-738,15875,-133.55,-154.03,180.37,-326.50,-65.59,1502.43,126.58,10.38,896.00,243.50,-52.15,1029.98,15.17,2.47,-9.31,1393,1370,1394,1398
357744,1117,197,14079,-161.22,-209.63,147.38,-326.50,-65.59,1502.43,124.13,9.68,896.94,243.50,-52.15,1029.98,29.85,-2.98,-9.97,1404,1358,1399,1394
357751,-295,271,16315,-147.65,-158.02,198.46,-326.50,-65.59,1504.38,121.94,9.64,898.60,243.50,-52.15,1029.98,26.74,-7.17,-6.58,1404,1363,1399,1388
357757,383,-508,17932,-151.90,-198.73,152.44,-326.50,-65.59,1504.38,119.61,8.44,899.56,243.50,-52.15,1029.98,29.61,0.35,-9.58,1404,1358,1396,1396
357765,90,1165,15578,-169.46,-162.55,206.44,-310.73,-65.59,1504.38,117.74,8.59,901.17,243.50,-52.15,1029.98,25.54,-8.14,-6.47,1403,1364,1400,1387
357771,-325,-794,18306,-125.57,-186.49,140.20,-310.73,-65.59,1504.38,115.95,6.95,902.02,243.50,-52.15,1029.98,26.69,3.34,-9.98,1401,1360,1394,1399
357777,1739,901,14291,-177.98,-183.03,204.05,-310.73,-65.59,1512.17,113.49,6.45,903.49,243.50,-52.15,1029.98,29.55,-4.20,-6.85,1406,1361,1397,1391
357783,-878,-535,16875,-152.17,-200.32,175.05,-310.73,-65.59,1512.17,112.85,4.58,904.71,203.18,-54.75,1029.98,14.66,4.11,-7.71,1394,1371,1391,1398
357790,1438,-449,15459,-180.37,-202.45,191.28,-310.73,-59.11,1512.17,110.09,3.31,906.06,203.18,-54.75,1029.98,26.41,0.01,-7.41,1403,1363,1394,1394
357796,-1685,1059,12843,-108.81,-185.69,188.62,-310.73,-59.11,1512.17,109.82,3.63,907.30,203.18,-54.75,1029.98,12.95,-9.02,-6.67,1393,1374,1401,1387
357803,936,-1646,15060,-166.27,-214.16,177.44,-310.73,-59.11,1516.07,107.42,1.68,908.45,203.18,-54.75,1029.98,25.01,4.21,-8.12,1402,1363,1392,1398
357809,-291,2761,17950,-148.71,-203.51,212.29,-310.73,-59.11,1516.07,106.12,2.12,909.89,203.18,-54.75,1029.98,19.91,-9.66,-5.27,1400,1369,1400,1385
357816,560,-1951,16710,-132.22,-218.41,178.24,-307.57,-65.59,1523.86,103.90,0.16,911.06,203.18,-54.75,1029.98,24.17,4.24,-7.82,1401,1364,1391,1398
357822,-30,412,17024,-149.51,-216.02,231.45,-307.57,-65.59,1523.86,102.05,0.47,912.69,203.18,-54.75,1029.98,23.85,-8.57,-3.74,1404,1367,1398,1385
357829,315,-1238,17034,-112.53,-218.68,193.14,-307.57,-68.83,1525.80,99.71,-1.29,914.04,203.18,-54.75,1029.98,25.24,3.23,-6.52,1403,1364,1391,1396
357835,238,713,15179,-103.49,-217.08,223.47,-307.57,-68.83,1525.80,97.81,-0.67,915.65,182.38,-54.75,1029.98,21.65,-10.27,-3.94,1402,1369,1400,1384
357841,524,863,16160,-78.21,-230.12,203.78,-307.57,-68.83,1525.80,95.53,0.10,917.26,182.38,-54.75,1029.98,23.13,-10.86,-4.61,1403,1367,1401,1384
357848,718,-1310,13343,-95.24,-230.12,236.24,-307.57,-68.83,1525.80,93.39,-1.25,918.66,182.38,-54.75,1029.98,24.28,2.20,-4.42,1404,1367,1390,1394
357855,-200,2390,16377,-48.15,-234.37,200.85,-307.57,-67.21,1525.80,91.83,-0.08,920.23,182.38,-54.75,1029.98,19.49,-13.06,-4.51,1400,1370,1402,1382
357861,951,-3096,15739,-104.82,-231.71,226.13,-307.57,-67.21,1525.80,90.03,-1.71,921.53,182.38,-54.75,1029.98,22.47,4.01,-4.76,1402,1368,1389,1395
357867,-607,1809,15596,-44.96,-254.59,223.73,-307.57,-67.21,1525.80,88.63,-0.55,923.27,182.38,-54.75,1029.98,18.96,-12.91,-3.26,1401,1372,1401,1381
357873,911,-3106,17288,-82.20,-235.70,219.48,-307.57,-67.21,1525.80,86.86,-2.06,924.54,182.38,-54.75,1029.98,22.75,3.32,-4.59,1403,1368,1390,1395
357880,-1323,1187,15078,-17.82,-269.76,235.97,-304.42,-67.21,1519.96,85.89,-1.00,926.32,182.38,-54.75,1029.98,16.91,-12.32,-2.56,1400,1374,1400,1381
357886,1508,139,16582,2.93,-273.75,207.24,-304.42,-67.21,1519.96,83.04,-0.39,927.76,173.28,-56.04,1029.98,28.21,-10.40,-3.54,1408,1364,1399,1383
357894,-646,-338,16163,-7.98,-292.10,258.85,-305.99,-67.21,1529.70,82.36,-0.12,929.74,173.28,-56.04,1029.98,14.67,-8.21,-1.03,1399,1377,1396,1383
357900,966,2006,15854,28.47,-307.53,199.79,-305.99,-67.21,1529.70,80.15,1.30,931.09,173.28,-56.04,1029.98,25.16,-15.84,-3.32,1405,1367,1403,1379
357906,-412,-2330,15918,-21.55,-292.10,250.60,-304.42,-67.21,1519.96,78.65,0.03,932.74,173.28,-56.04,1029.98,19.95,0.50,-2.24,1402,1372,1390,1391
357912,395,1845,16313,31.39,-358.35,218.41,-304.42,-67.21,1519.96,76.38,1.57,934.26,173.28,-56.04,1029.98,25.57,-16.35,-2.17,1407,1367,1403,1378
357919,1353,-3303,15644,-47.35,-327.75,255.13,-304.42,-67.21,1529.70,73.72,0.10,935.94,173.28,-56.04,1029.98,26.88,1.53,-1.81,1408,1367,1389,1391
357925,-1796,449,14574,-1.33,-380.43,240.76,-304.42,-67.21,1529.70,72.53,0.66,937.49,173.28,-56.04,1029.98,19.57,-10.31,-1.34,1403,1373,1398,1382
357932,1784,-64,15596,-0.53,-342.12,245.02,-299.68,-62.35,1525.80,68.86,1.16,939.33,173.28,-56.04,1029.98,32.80,-9.67,-0.76,1413,1363,1397,1382
357939,-1638,439,15960,-22.08,-387.34,252.73,-299.68,-62.35,1525.80,67.55,1.64,941.05,168.07,-56.04,1029.98,19.87,-9.76,-0.43,1404,1373,1396,1381
357945,1713,1007,16814,-58.53,-382.82,230.65,-291.80,-59.11,1525.80,64.13,2.41,942.76,168.07,-56.04,1029.98,31.75,-11.32,-0.80,1412,1364,1398,1381
357951,-1502,-1195,19131,-42.03,-367.92,271.35,-291.80,-59.11,1525.80,63.05,1.93,944.46,168.07,-56.04,1029.98,19.35,-3.97,0.42,1404,1374,1391,1385
357958,659,1196,16516,-58.00,-417.14,228.52,-291.80,-57.49,1525.80,60.16,2.99,946.22,168.07,-56.04,1029.98,28.98,-12.99,-0.32,1411,1366,1399,1379
357964,154,-1671,18335,-77.95,-359.68,274.28,-291.80,-57.49,1525.80,58.60,1.61,947.93,168.07,-56.04,1029.98,23.08,1.94,1.11,1407,1372,1386,1389
357970,-717,1402,15725,-86.46,-424.85,229.32,-291.80,-57.49,1525.80,56.57,2.18,949.59,168.07,-56.04,1029.98,25.04,-10.30,-0.16,1408,1369,1397,1381
357977,2012,204,14549,-102.42,-362.34,270.56,-291.80,-57.49,1525.80,53.35,2.23,951.35,168.07,-56.04,1029.98,34.21,-7.29,1.71,1416,1364,1393,1382
357984,-1511,327,15650,-149.24,-426.18,237.30,-291.80,-59.11,1525.80,51.72,1.77,953.06,168.07,-56.04,1029.98,23.08,-4.36,0.35,1407,1371,1392,1385
357990,3782,43,13176,-170.79,-382.82,256.19,-291.80,-59.11,1525.80,48.03,0.99,954.75,158.97,-54.75,1029.98,35.34,-2.04,1.10,1417,1362,1389,1386
357997,-2342,-1204,16753,-183.30,-373.24,265.77,-288.64,-59.11,1527.75,46.83,-0.40,956.62,158.97,-54.75,1029.98,20.17,1.21,1.60,1405,1374,1386,1388
358002,2125,187,14304,-238.90,-387.61,256.19,-288.64,-59.11,1527.75,43.50,-1.12,958.31,158.97,-54.75,1029.98,34.95,-1.88,2.10,1417,1363,1388,1386
358009,-1362,-1529,15141,-273.75,-343.45,271.89,-283.91,-59.11,1527.75,42.47,-3.32,960.17,158.97,-54.75,1029.98,19.93,6.45,2.31,1406,1375,1382,1392
358016,560,642,16783,-214.95,-432.83,245.28,-283.91,-59.11,1527.75,40.33,-3.45,961.83,158.97,-54.75,1029.98,27.72,-5.33,2.32,1412,1369,1391,1383
358022,982,488,16307,-232.78,-351.43,292.10,-280.76,-59.11,1539.44,38.10,-3.62,964.07,158.97,-54.75,1029.98,26.88,-5.19,4.51,1413,1371,1389,1381
358028,-1801,261,19312,-187.55,-393.99,239.70,-280.76,-59.11,1539.44,36.86,-4.29,965.62,158.97,-54.75,1029.98,22.46,-1.82,1.97,1407,1373,1388,1386
358035,2002,680,16385,-227.99,-384.68,280.40,-277.60,-59.11,1539.44,33.58,-4.58,967.73,158.97,-54.75,1029.98,33.19,-4.40,4.25,1417,1366,1389,1382
358041,-1658,-2978,17285,-247.41,-414.74,255.92,-277.60,-59.11,1539.44,32.02,-6.79,969.38,153.77,-53.45,1029.98,24.09,7.80,2.76,1409,1372,1380,1392
358048,1856,952,14516,-226.13,-422.99,256.46,-277.60,-59.11,1539.44,28.65,-7.01,971.31,153.77,-53.45,1029.98,33.71,-4.36,3.67,1417,1366,1389,1382
358054,-1719,-1392,14469,-232.51,-418.74,265.50,-277.60,-59.11,1539.44,27.33,-8.59,972.97,153.77,-53.45,1029.98,23.58,4.66,3.71,1410,1373,1382,1389
358061,1816,477,15990,-233.04,-474.07,252.73,-277.60,-59.11,1539.44,23.72,-8.83,974.95,153.77,-53.45,1029.98,35.47,-4.03,4.27,1419,1365,1388,1382
358067,-1149,1521,15430,-217.88,-417.40,277.74,-277.60,-59.11,1539.44,22.09,-9.29,976.74,153.77,-53.45,1029.98,25.98,-2.40,4.80,1412,1372,1387,1383
358074,251,-576,16374,-196.07,-486.84,239.16,-274.45,-59.11,1539.44,20.07,-10.22,978.60,153.77,-53.45,1029.98,27.24,-0.05,4.14,1413,1371,1385,1385
358080,-402,1666,17004,-190.75,-442.94,257.25,-274.45,-59.11,1539.44,18.16,-10.39,980.26,153.77,-53.45,1029.98,28.33,-4.09,4.53,1414,1370,1388,1382
358087,-287,-1445,17008,-191.01,-527.01,233.31,-271.29,-59.11,1539.44,15.89,-11.95,982.04,153.77,-53.45,1029.98,29.06,3.57,4.02,1414,1369,1383,1388
358093,598,1927,13873,-214.95,-499.61,253.26,-271.29,-59.11,1539.44,13.13,-12.08,983.76,153.77,-50.85,1029.98,33.47,-3.87,4.84,1418,1367,1388,1382
358100,-905,-2115,16204,-199.52,-561.33,232.25,-263.41,-59.11,1539.44,10.58,-13.93,985.48,153.77,-50.85,1029.98,31.37,5.87,4.21,1416,1368,1381,1390
358106,1506,-159,13454,-247.68,-586.60,234.37,-263.41,-59.11,1539.44,7.01,-14.24,987.22,153.77,-50.85,1029.98,39.79,-2.48,5.70,1424,1362,1386,1382
358113,-834,-792,16719,-212.03,-623.58,222.94,-260.25,-54.25,1541.38,4.15,-15.48,988.89,153.77,-50.85,1029.98,34.02,2.72,4.42,1418,1366,1383,1387
358119,484,789,19229,-240.49,-648.85,210.96,-260.25,-54.25,1541.38,1.04,-16.00,990.32,153.77,-50.85,1029.98,38.01,-0.88,4.28,1421,1363,1386,1385
358126,-937,583,16424,-214.16,-662.95,216.55,-257.10,-54.25,1541.38,-2.30,-16.76,991.95,153.77,-50.85,1029.98,37.30,0.12,4.51,1421,1363,1385,1385
358131,517,-1261,18805,-185.42,-702.06,198.73,-257.10,-54.25,1541.38,-5.31,-17.76,993.36,153.77,-50.85,1029.98,38.13,2.37,4.53,1421,1363,1383,1387
358138,4,1240,14329,-196.07,-727.86,220.54,-257.10,-59.11,1547.22,-9.41,-18.05,995.04,153.77,-50.85,1029.98,42.29,-2.29,5.11,1425,1360,1386,1383
358145,0,-1002,14669,-172.39,-752.87,204.85,-257.10,-59.11,1547.22,-12.88,-19.05,996.54,153.77,-52.15,1029.98,40.92,2.03,5.01,1424,1361,1383,1386
358152,222,744,13879,-204.05,-760.05,208.30,-257.10,-59.11,1549.17,-17.15,-19.49,998.17,153.77,-52.15,1029.98,43.99,-1.51,5.14,1426,1359,1386,1383
358158,29,-1119,13236,-135.94,-790.12,200.32,-257.10,-59.11,1549.17,-20.68,-20.32,999.58,153.77,-52.15,1029.98,43.24,1.45,5.29,1426,1359,1383,1386
358165,587,-412,15295,-175.32,-777.88,184.63,-257.10,-54.25,1549.17,-24.75,-20.93,1001.09,153.77,-52.15,1029.98,44.11,-0.36,4.91,1426,1358,1385,1385
358170,-530,919,16794,-123.97,-804.48,209.63,-257.10,-54.25,1549.17,-28.59,-21.00,1002.50,153.77,-52.15,1029.98,46.18,-3.31,5.68,1428,1357,1387,1382
358177,-119,-1123,16525,-112.53,-771.23,170.26,-241.32,-52.63,1551.12,-32.51,-21.64,1003.90,153.77,-52.15,1029.98,44.00,-0.14,4.57,1426,1358,1385,1385
358183,32,1267,16261,-42.57,-806.08,213.09,-241.32,-52.63,1551.12,-36.49,-21.09,1005.34,153.77,-52.15,1029.98,47.91,-7.17,6.10,1430,1356,1389,1378
358191,-196,-1123,16961,-44.16,-785.33,164.41,-239.75,-51.01,1556.96,-40.56,-21.25,1006.70,153.77,-52.15,1029.98,45.53,-2.85,4.66,1427,1357,1387,1383
358197,183,490,16444,7.18,-815.39,195.00,-239.75,-51.01,1556.96,-44.63,-20.53,1008.10,184.98,-50.85,1029.98,52.23,-7.99,5.83,1433,1353,1390,1378
358204,48,710,16966,29.00,-807.67,152.70,-238.17,-51.01,1564.75,-49.07,-19.57,1009.33,184.98,-50.85,1029.98,52.54,-9.03,4.29,1432,1352,1392,1378
358210,757,-1999,16522,-26.34,-832.95,180.10,-238.17,-51.01,1564.75,-52.85,-19.98,1010.65,184.98,-50.85,1029.98,52.59,-1.13,6.07,1434,1353,1385,1383
358216,601,858,15846,56.40,-820.98,172.39,-233.44,-54.25,1568.65,-57.30,-18.78,1011.96,184.98,-50.85,1029.98,54.54,-10.70,5.33,1435,1351,1393,1376
358222,605,-2587,15763,35.38,-806.88,143.39,-233.44,-54.25,1568.65,-61.02,-19.06,1013.06,184.98,-50.85,1029.98,53.02,-2.07,4.92,1433,1352,1386,1383
358230,-890,2058,15449,96.04,-789.85,171.86,-233.44,-63.97,1568.65,-65.40,-17.59,1014.37,184.98,-50.85,1029.98,54.11,-12.05,5.34,1434,1351,1394,1375
358236,554,-551,17243,137.01,-776.02,129.56,-233.44,-63.97,1568.65,-68.90,-16.45,1015.32,184.98,-50.85,1029.98,52.68,-11.32,4.29,1432,1351,1394,1377
358242,229,234,15628,113.60,-779.74,172.66,-233.44,-65.59,1568.65,-73.02,-15.14,1016.68,184.98,-50.85,1029.98,53.74,-11.53,5.88,1434,1352,1393,1375
358248,574,719,15043,163.88,-758.46,135.68,-233.44,-65.59,1568.65,-76.74,-13.46,1017.66,171.98,-53.45,1028.69,52.43,-15.01,4.63,1432,1352,1397,1374
358255,901,-1831,16100,130.62,-742.23,144.46,-225.55,-65.59,1568.65,-80.45,-12.82,1018.89,171.98,-53.45,1028.69,50.93,-8.47,5.67,1432,1354,1391,1378
358261,124,1525,13441,159.89,-737.71,121.84,-225.55,-65.59,1568.65,-83.94,-11.15,1019.69,171.98,-53.45,1028.69,52.96,-15.72,4.06,1432,1351,1398,1373
358268,839,-3146,16115,162.28,-690.62,137.27,-214.51,-65.59,1570.59,-87.49,-10.76,1020.89,171.98,-53.45,1028.69,50.66,-7.23,5.65,1432,1354,1390,1379
358274,-2475,2856,14268,241.82,-672.80,127.70,-214.51,-65.59,1570.59,-90.52,-8.72,1021.69,171.98,-53.45,1028.69,50.74,-18.37,4.26,1431,1353,1399,1371
358281,1731,-1656,15955,223.20,-636.08,137.01,-206.62,-65.59,1574.49,-93.51,-7.45,1022.89,171.98,-53.45,1028.69,48.54,-12.59,5.97,1431,1356,1394,1374
358287,-1385,2209,16927,243.69,-638.48,147.12,-206.62,-65.59,1574.49,-96.30,-5.45,1023.80,171.98,-53.45,1028.69,50.02,-18.53,5.26,1431,1354,1399,1370
358294,2130,-159,17295,267.36,-596.71,123.97,-205.05,-65.59,1574.49,-99.19,-3.07,1024.82,171.98,-53.45,1028.69,48.54,-19.22,5.17,1430,1355,1399,1370
358300,-1094,-896,17296,274.55,-533.40,137.27,-205.05,-65.59,1574.49,-101.28,-1.34,1025.77,161.57,-53.45,1029.98,44.27,-16.81,5.28,1427,1359,1397,1372
358306,707,1271,15545,296.89,-558.40,101.09,-197.16,-65.59,1574.49,-104.02,1.45,1026.52,161.57,-53.45,1029.98,46.93,-21.88,3.68,1428,1355,1403,1369
358312,-216,-2374,16085,203.51,-466.89,133.28,-197.16,-65.59,1574.49,-105.67,2.29,1027.45,161.57,-53.45,1029.98,42.50,-12.02,5.59,1426,1360,1394,1375
358320,-192,1348,14722,293.70,-518.23,115.19,-187.70,-65.59,1576.44,-107.99,4.85,1028.24,161.57,-53.45,1029.98,45.49,-21.47,4.29,1427,1357,1402,1369
358325,2119,-927,18010,219.74,-431.77,118.65,-187.70,-65.59,1576.44,-109.37,6.18,1029.09,161.57,-53.45,1029.98,41.49,-15.84,5.42,1425,1361,1397,1372
358332,-1580,-315,15456,230.92,-455.71,115.99,-184.54,-65.59,1576.44,-111.13,7.83,1029.93,161.57,-53.45,1029.98,42.57,-16.57,4.70,1425,1359,1398,1372
358338,2635,2355,18561,227.72,-394.53,101.09,-184.54,-65.59,1576.44,-112.79,10.09,1030.54,161.57,-53.45,1029.98,43.50,-22.00,3.93,1425,1358,1403,1369
358345,-1658,-2481,15660,159.89,-372.18,124.24,-181.39,-63.97,1576.44,-114.04,10.77,1031.50,161.57,-53.45,1029.98,39.93,-11.44,5.48,1424,1362,1393,1376
358351,1444,2764,14821,266.30,-357.28,88.06,-181.39,-63.97,1576.44,-115.52,13.36,1032.02,160.27,-53.45,1029.98,42.14,-23.84,3.40,1424,1359,1404,1368
358358,-583,-1910,15858,155.36,-294.23,97.63,-179.81,-57.49,1576.44,-116.20,14.10,1032.80,160.27,-53.45,1029.98,36.99,-12.19,4.68,1421,1364,1394,1376
358364,662,1511,12758,197.13,-335.73,73.42,-179.81,-57.49,1576.44,-117.27,15.95,1033.23,160.27,-53.45,1029.98,40.08,-20.11,3.15,1422,1360,1402,1371
358371,1051,-905,15181,151.11,-224.53,79.81,-178.23,-47.77,1570.59,-117.46,16.92,1033.92,160.27,-53.45,1029.98,34.38,-13.83,4.28,1418,1365,1396,1375
358377,65,-474,11877,150.57,-276.94,84.07,-178.23,-47.77,1570.59,-117.94,17.83,1034.49,160.27,-53.45,1029.98,36.44,-14.40,4.21,1420,1364,1396,1374
358384,1644,446,15474,130.36,-164.94,57.46,-178.23,-47.77,1576.44,-117.85,19.27,1034.98,160.27,-53.45,1029.98,32.87,-16.66,3.27,1416,1366,1399,1373
358389,-1919,-1492,16489,97.63,-163.34,92.31,-178.23,-47.77,1576.44,-117.65,19.68,1035.60,160.27,-53.45,1029.98,32.11,-11.42,4.65,1417,1367,1394,1376
358396,878,2829,15491,123.44,-141.53,21.02,-175.08,-42.91,1570.59,-117.67,21.46,1035.71,160.27,-53.45,1029.98,33.46,-19.06,1.33,1415,1364,1402,1373
358403,285,-1490,17019,114.93,-90.72,76.62,-175.08,-42.91,1570.59,-117.01,21.96,1036.33,188.88,-53.45,1029.98,32.74,-12.09,4.45,1417,1367,1394,1376
358410,-706,2099,16893,143.39,-73.69,21.28,-173.50,-34.82,1570.59,-116.34,23.54,1036.48,188.88,-53.45,1029.98,32.80,-18.24,1.62,1415,1365,1401,1373
358415,1674,252,15128,87.26,-42.57,78.48,-173.50,-34.82,1570.59,-115.50,24.44,1037.05,188.88,-53.45,1029.98,31.21,-15.06,4.50,1416,1368,1397,1374
358422,-1012,-252,16253,70.50,-33.79,48.95,-173.50,-33.20,1570.59,-114.41,25.01,1037.46,188.88,-53.45,1029.98,30.21,-12.63,3.19,1414,1368,1396,1376
358428,2496,-964,13897,33.52,-13.04,55.60,-173.50,-33.20,1570.59,-113.35,24.95,1038.09,188.88,-53.45,1029.98,29.56,-9.02,5.00,1415,1370,1392,1378
358434,-1029,-1048,15793,10.38,1.06,52.41,-168.77,-29.96,1570.59,-112.00,24.90,1038.55,188.88,-53.45,1029.98,28.58,-9.15,3.60,1413,1369,1393,1379
358440,1334,-340,16546,-38.04,-22.61,45.23,-168.77,-29.96,1570.59,-110.97,24.81,1038.94,188.88,-53.45,1029.98,29.43,-8.79,3.57,1414,1369,1393,1379
358448,-1152,870,14179,9.58,34.58,61.45,-168.77,-29.96,1570.59,-109.46,25.23,1039.41,188.88,-53.45,1029.98,27.32,-11.78,3.74,1412,1370,1395,1377
358454,1336,-267,15934,-71.03,0.27,41.50,-168.77,-29.96,1570.59,-108.25,24.95,1039.80,200.58,-50.85,1028.69,29.65,-7.39,3.71,1414,1369,1391,1380
358461,138,1334,12755,-12.50,52.94,67.84,-168.77,-28.34,1576.44,-106.71,25.51,1040.30,200.58,-50.85,1028.69,28.41,-12.26,4.19,1414,1370,1395,1376
358467,-66,-2440,17998,-30.06,84.86,33.79,-168.77,-28.34,1576.44,-105.08,24.92,1040.65,200.58,-50.85,1028.69,26.34,-5.37,3.66,1412,1371,1390,1382
358473,439,1570,13747,-4.52,99.76,50.28,-162.46,-28.34,1576.44,-103.28,25.64,1041.04,200.58,-50.85,1028.69,26.50,-13.14,3.62,1412,1371,1396,1376
358479,117,-1161,11898,-2.13,87.26,22.61,-162.46,-28.34,1576.44,-101.64,25.35,1041.31,200.58,-50.85,1028.69,25.61,-7.28,3.26,1411,1371,1392,1381
358487,1408,208,13761,-15.96,103.49,43.10,-160.88,-25.10,1578.38,-99.66,25.70,1041.75,200.58,-50.85,1028.69,25.10,-11.09,3.99,1411,1372,1394,1377
358493,-366,1035,12118,26.60,132.75,26.34,-160.88,-25.10,1578.38,-97.80,26.33,1041.95,200.58,-50.85,1028.69,23.89,-13.29,2.91,1409,1372,1397,1376
358499,1194,-1307,16361,-14.90,181.97,35.91,-157.73,-29.96,1580.33,-95.25,25.87,1042.41,200.58,-50.85,1028.69,21.31,-6.65,4.20,1408,1375,1390,1380
358505,-1620,2010,13460,40.97,219.48,31.66,-157.73,-29.96,1580.33,-92.75,26.69,1042.66,250.00,-50.85,1029.98,26.09,-14.22,2.98,1411,1371,1397,1375
358512,1931,-2699,15470,-13.04,197.66,28.73,-157.73,-23.48,1588.12,-90.55,25.53,1043.12,250.00,-50.85,1029.98,28.60,-2.69,4.20,1414,1370,1387,1383
358518,-1415,1085,14959,49.22,207.24,22.61,-157.73,-23.48,1588.12,-88.19,26.19,1043.32,250.00,-50.85,1029.98,25.55,-13.44,2.84,1410,1371,1397,1376
358524,1230,-1169,14688,79.01,232.78,12.50,-157.73,-23.48,1588.12,-85.46,26.31,1043.62,250.00,-50.85,1029.98,24.22,-9.96,3.41,1410,1373,1394,1378
358531,-1627,524,17623,80.87,242.62,11.71,-157.73,-23.48,1588.12,-82.85,27.02,1043.77,250.00,-50.85,1029.98,23.31,-13.86,2.62,1409,1373,1397,1376
358537,770,1188,18617,164.14,258.05,19.42,-157.73,-29.96,1588.12,-79.96,28.72,1044.01,250.00,-50.85,1029.98,23.12,-19.26,3.04,1409,1373,1401,1371
358543,1324,-1373,14310,150.31,325.89,34.32,-157.73,-29.96,1588.12,-76.97,29.01,1044.46,250.00,-50.85,1029.98,20.34,-11.42,4.59,1408,1376,1394,1376
358550,-1161,1064,14098,254.33,274.28,1.86,-157.73,-28.34,1590.07,-73.82,31.19,1044.57,250.00,-50.85,1029.98,21.28,-21.97,2.34,1407,1374,1404,1370
358556,2168,-1907,13990,208.04,342.65,31.66,-157.73,-28.34,1590.07,-71.20,31.33,1045.07,303.31,-52.15,1029.98,28.94,-10.88,4.89,1415,1370,1393,1376
358563,-1151,214,15937,293.17,304.34,-3.46,-157.73,-28.34,1590.07,-67.77,33.49,1045.18,303.31,-52.15,1029.98,25.44,-22.33,2.43,1410,1371,1404,1370
358569,2755,-390,15121,253.26,403.04,17.56,-157.73,-28.34,1590.07,-64.70,34.47,1046.21,303.31,-52.15,1029.98,24.61,-16.60,8.50,1414,1376,1395,1369
358576,-1888,-1021,15073,353.56,385.48,-11.97,-160.88,-28.34,1590.07,-60.73,36.65,1046.30,303.31,-52.15,1029.98,21.56,-22.81,2.46,1407,1374,1404,1369
358582,2089,1558,17249,418.47,408.89,-10.91,-160.88,-28.34,1590.07,-57.64,40.17,1046.42,303.31,-52.15,1029.98,23.78,-33.37,2.69,1409,1372,1412,1361
358589,-791,-2316,17610,370.05,426.18,1.33,-160.88,-23.48,1588.12,-53.56,42.02,1046.66,303.31,-52.15,1029.98,20.06,-21.56,3.35,1407,1376,1403,1369
358595,637,2797,14776,471.94,425.92,-17.29,-160.88,-23.48,1588.12,-50.35,45.81,1046.69,303.31,-52.15,1029.98,21.97,-35.96,2.17,1407,1373,1415,1359
358601,230,-1875,13109,422.73,483.38,4.26,-162.46,-23.48,1588.12,-46.17,47.69,1047.00,303.31,-52.15,1029.98,18.23,-22.64,3.82,1406,1378,1403,1368
358607,214,-11,15349,463.16,420.86,-36.45,-162.46,-23.48,1588.12,-42.23,50.54,1047.02,308.52,-50.85,1029.98,18.50,-29.24,2.14,1404,1376,1409,1364
358615,1562,-838,12530,357.55,484.18,-13.30,-162.46,-21.86,1588.12,-38.54,51.68,1047.34,308.52,-50.85,1029.98,20.78,-18.76,3.91,1408,1376,1400,1371
358621,-1064,-1373,14706,440.02,437.36,-33.79,-162.46,-21.86,1588.12,-34.71,53.85,1047.35,308.52,-50.85,1029.98,17.76,-25.87,2.19,1404,1377,1407,1367
358627,255,2347,14636,433.37,460.77,-14.37,-165.62,-21.86,1588.12,-30.75,57.73,1047.48,308.52,-50.85,1029.98,18.14,-35.12,2.83,1405,1377,1413,1359
358633,-537,-956,18433,392.93,403.04,-18.09,-165.62,-21.86,1588.12,-27.25,59.56,1047.61,308.52,-50.85,1029.98,18.14,-24.86,2.92,1405,1377,1405,1367
358640,1150,1799,15322,353.29,400.91,-39.37,-167.19,-18.62,1586.17,-23.72,63.18,1047.63,308.52,-50.85,1029.98,20.53,-33.47,2.22,1406,1375,1413,1361
358646,-730,-2080,16421,343.45,404.64,-2.93,-167.19,-18.62,1586.17,-20.42,64.41,1047.84,308.52,-50.85,1029.98,18.66,-21.60,3.50,1406,1377,1403,1369
358653,740,1236,14338,313.12,364.46,-43.90,-171.92,-15.38,1578.38,-16.79,67.34,1047.87,308.52,-50.85,1029.98,18.96,-30.42,2.29,1405,1376,1410,1363
358660,-13,-395,14666,275.08,328.02,-6.92,-171.92,-15.38,1578.38,-13.57,68.46,1048.08,312.42,-50.85,1029.98,20.17,-20.87,3.43,1407,1376,1402,1370
358667,1217,442,13926,222.67,313.39,-73.42,-171.92,-13.77,1578.38,-10.32,69.35,1048.24,312.42,-50.85,1029.98,20.60,-19.42,3.09,1407,1375,1401,1371
358672,-1289,887,14700,190.21,318.71,-19.42,-171.92,-13.77,1578.38,-7.22,70.57,1048.32,312.42,-50.85,1029.98,18.65,-22.33,2.71,1405,1376,1404,1369
358679,2020,-66,16539,139.93,250.07,-47.09,-171.92,-7.29,1578.38,-6.03,70.30,1048.35,312.42,-50.85,1029.98,31.64,-13.01,2.39,1415,1366,1397,1377
358685,-760,-273,14859,21.28,269.49,-31.39,-171.92,-7.29,1578.38,-3.31,69.93,1048.35,312.42,-50.85,1029.98,20.68,-12.17,2.18,1406,1374,1396,1378
358692,19,65,15492,69.70,227.99,-12.77,-173.50,-7.29,1580.33,-0.50,69.81,1048.50,312.42,-50.85,1029.98,22.07,-13.80,3.03,1408,1374,1397,1376
358699,1569,-181,13219,-12.50,215.49,-39.90,-173.50,-7.29,1580.33,0.30,68.65,1048.50,312.42,-50.85,1029.98,32.47,-7.08,2.22,1415,1365,1392,1381
358705,-826,681,16237,41.50,159.89,5.85,-173.50,-7.29,1580.33,2.76,68.87,1048.70,312.42,-50.85,1029.98,23.54,-15.58,3.36,1409,1373,1398,1374
358712,1794,-171,17802,-47.09,191.28,-30.33,-173.50,-7.29,1580.33,3.60,67.39,1048.76,312.42,-50.85,1028.69,31.97,-5.21,2.75,1415,1366,1390,1382
358718,-1829,665,16736,-23.68,138.07,-1.60,-175.08,-7.29,1580.33,5.92,67.17,1048.87,312.42,-50.85,1028.69,23.96,-12.95,3.04,1409,1373,1396,1376
358724,2319,-27,17720,-91.25,123.44,-17.56,-175.08,-7.29,1580.33,5.79,65.82,1048.94,312.42,-50.85,1028.69,37.59,-5.38,2.88,1420,1362,1391,1382
358731,-871,685,15682,-42.03,80.61,23.94,-175.08,-7.29,1580.33,7.67,65.50,1049.22,312.42,-50.85,1028.69,25.99,-12.21,4.02,1412,1372,1395,1376
358737,1398,402,14270,-66.51,67.84,-1.60,-175.08,-7.29,1580.33,7.17,64.39,1049.53,312.42,-50.85,1028.69,39.84,-6.79,4.45,1423,1361,1390,1380
358744,224,-717,15649,-108.54,21.02,7.18,-181.39,-7.29,1584.23,8.10,62.51,1049.68,312.42,-50.85,1028.69,31.38,-3.28,3.35,1415,1367,1389,1384
358750,293,791,16466,-88.32,-15.96,4.79,-181.39,-7.29,1584.23,9.18,62.11,1049.86,312.42,-50.85,1028.69,29.54,-11.01,3.70,1414,1369,1394,1377
358757,696,-1144,17117,-137.80,0.53,18.09,-181.39,-0.81,1580.33,9.58,59.85,1050.06,312.42,-50.85,1028.69,34.15,-0.80,3.69,1418,1365,1386,1385
358763,-1802,847,16945,-133.55,-7.98,15.70,-181.39,-0.81,1580.33,10.77,59.11,1050.21,311.12,-52.15,1029.98,28.81,-8.80,3.31,1413,1369,1393,1379
358770,1854,-730,16428,-144.72,-35.38,6.92,-181.39,-0.81,1584.23,9.89,56.91,1050.34,311.12,-52.15,1029.98,41.01,-0.87,3.15,1423,1359,1387,1386
358776,80,880,15939,-119.18,-29.80,5.85,-181.39,-0.81,1584.23,10.85,56.56,1050.48,311.12,-52.15,1029.98,29.99,-10.81,3.40,1414,1368,1394,1378
358782,629,-847,14778,-135.14,-62.52,-2.13,-181.39,-0.81,1584.23,10.81,54.29,1050.53,311.12,-52.15,1029.98,36.25,-0.37,2.72,1419,1363,1387,1386
358789,603,1407,15490,-65.18,-110.94,5.05,-181.39,-0.81,1584.23,10.68,54.96,1050.66,311.12,-52.15,1029.98,36.85,-17.07,3.28,1419,1363,1399,1373
358796,-197,356,17678,-161.22,-100.03,-13.04,-182.97,-0.81,1590.07,11.34,53.68,1050.64,311.12,-52.15,1029.98,32.25,-5.50,2.40,1415,1366,1391,1383
358802,746,-814,17707,-186.75,-110.67,15.16,-182.97,-0.81,1590.07,11.06,51.43,1050.79,311.12,-52.15,1029.98,37.74,1.81,3.40,1420,1362,1385,1387
358808,-33,630,16006,-173.45,-104.28,-29.00,-182.97,-2.43,1584.23,11.70,50.47,1050.68,311.12,-52.15,1029.98,32.38,-6.95,1.90,1415,1365,1392,1382
358814,426,-346,14834,-138.87,-133.02,-1.06,-182.97,-2.43,1584.23,11.64,48.59,1050.75,311.12,-50.85,1008.05,36.29,-0.73,5.55,1421,1365,1385,1384
358821,1000,458,14994,-132.48,-130.36,-24.74,-182.97,-2.43,1584.23,10.96,48.59,1051.44,311.12,-50.85,1008.05,39.86,-11.92,9.05,1426,1365,1391,1372
358828,376,-1408,16326,-199.26,-148.45,-10.11,-182.97,-2.43,1584.23,10.54,46.29,1051.39,311.12,-50.85,1008.05,38.73,2.91,4.89,1422,1363,1383,1387
358835,360,1459,16658,-177.18,-106.95,-18.09,-182.97,-2.43,1584.23,10.60,46.18,1051.35,311.12,-50.85,1008.05,35.69,-11.04,4.99,1420,1365,1393,1376
358840,-26,-1717,17537,-219.21,-94.44,-19.15,-182.97,-2.43,1584.23,10.66,43.84,1051.26,311.12,-50.85,1008.05,35.68,3.47,4.58,1420,1365,1382,1388
358847,522,1990,16426,-125.57,-94.71,-35.38,-181.39,-2.43,1584.23,10.48,44.26,1051.08,311.12,-50.85,1008.05,37.06,-13.75,4.18,1420,1363,1396,1375
358853,744,-1822,18145,-150.31,-9.31,-25.81,-181.39,-2.43,1584.23,10.71,42.18,1050.97,311.12,-50.85,1008.05,34.60,1.94,4.47,1419,1365,1384,1387
358860,-1456,1657,14262,-87.79,-32.19,-37.24,-181.39,-4.05,1593.96,11.69,42.27,1050.76,311.12,-50.85,1008.05,30.55,-11.67,3.94,1415,1368,1395,1377
358866,2667,-932,15881,-170.79,-31.66,-50.55,-181.39,-4.05,1593.96,10.50,40.46,1050.49,311.12,-50.85,984.82,43.29,0.09,6.24,1427,1360,1384,1384
358874,-244,-233,15830,-126.90,-40.17,-42.83,-179.81,-4.05,1578.38,11.54,39.14,1050.27,311.12,-50.85,984.82,30.24,-3.52,6.66,1417,1370,1386,1381
358879,1334,13,14637,-123.17,-44.16,-75.29,-179.81,-4.05,1578.38,10.23,37.91,1050.06,311.12,-50.85,984.82,44.39,-2.84,6.51,1428,1359,1386,1381
358886,227,-1336,16555,-124.50,-16.49,-40.17,-179.81,-4.05,1593.96,10.82,35.89,1049.85,311.12,-50.85,984.82,32.73,0.86,6.61,1419,1369,1383,1384
358892,2,2020,17783,-89.12,4.52,-90.19,-179.81,-4.05,1593.96,11.51,36.36,1049.38,311.12,-50.85,984.82,31.61,-13.45,4.75,1417,1368,1395,1375
358899,1002,-2403,15858,-134.08,17.82,-46.56,-178.23,-4.05,1578.38,11.67,34.04,1049.09,311.12,-50.85,984.82,35.04,2.52,6.16,1420,1366,1382,1386
358905,-1346,3209,14177,52.41,17.56,-94.71,-178.23,-4.05,1578.38,12.50,35.32,1048.57,311.12,-50.85,984.82,30.56,-18.41,4.31,1415,1368,1399,1371
358912,2460,-1623,17404,-29.00,67.84,-50.28,-179.81,-12.15,1586.17,12.16,34.02,1048.29,311.12,-50.85,984.82,37.75,-2.96,6.08,1422,1364,1386,1382
358918,-1768,847,17721,23.41,100.03,-74.76,-179.81,-12.15,1586.17,14.02,34.45,1047.89,309.82,-50.85,955.14,24.22,-12.89,8.71,1414,1377,1392,1372
358925,3152,-974,16228,51.88,141.00,-43.63,-178.23,-12.15,1586.17,13.78,34.17,1047.67,309.82,-50.85,955.14,36.84,-8.63,9.87,1425,1368,1388,1374
358931,-1879,-928,16408,90.45,148.71,-51.61,-178.23,-12.15,1586.17,15.79,34.29,1047.43,309.82,-50.85,955.14,22.44,-10.99,9.50,1413,1379,1390,1373
358937,1861,1595,14599,171.06,138.60,-60.92,-171.92,-13.77,1586.17,15.95,36.51,1047.12,309.82,-50.85,955.14,34.39,-23.08,9.33,1422,1369,1399,1364
358943,408,-992,16966,135.68,188.88,-11.71,-171.92,-13.77,1586.17,17.55,36.22,1047.16,309.82,-50.85,955.14,24.90,-8.63,11.24,1416,1378,1387,1373
358950,-1,1127,16512,205.11,144.99,-68.90,-171.92,-13.77,1593.96,19.50,38.58,1046.83,309.82,-50.85,955.14,23.93,-23.87,9.20,1414,1377,1400,1363
358957,1683,-1491,17196,119.45,231.98,-2.93,-171.92,-13.77,1593.96,20.39,38.21,1046.90,309.82,-50.85,955.14,29.07,-8.32,11.43,1420,1375,1386,1373
358963,-1103,-248,17036,206.18,168.66,-56.40,-175.08,-13.77,1593.96,22.86,39.23,1046.61,309.82,-50.85,955.14,20.65,-16.51,9.37,1412,1380,1394,1369
358969,2715,281,14974,180.10,267.63,-18.62,-175.08,-13.77,1593.96,23.28,40.34,1046.61,311.12,-52.15,949.98,31.94,-17.86,11.56,1422,1373,1393,1366
358976,-1390,-709,14668,247.94,228.79,-46.56,-175.08,-13.77,1586.17,26.11,41.42,1046.38,311.12,-52.15,949.98,18.65,-17.21,10.32,1411,1382,1394,1367
358982,2590,2697,15271,277.74,211.50,-27.40,-175.08,-13.77,1586.17,26.61,43.99,1046.32,311.12,-52.15,949.98,30.94,-27.90,11.19,1421,1373,1401,1359
358989,-1204,-990,18782,201.65,259.65,-17.29,-175.08,-13.77,1582.28,29.46,44.53,1046.31,311.12,-52.15,949.98,17.90,-14.62,11.50,1411,1384,1391,1369
358994,1676,1480,17083,231.98,234.64,-54.80,-175.08,-13.77,1582.28,29.99,46.71,1046.14,311.12,-52.15,949.98,30.33,-25.74,10.43,1420,1373,1400,1361
359002,531,-1048,15853,197.13,286.78,-1.06,-175.08,-12.15,1586.17,31.92,46.69,1046.24,311.12,-52.15,949.98,22.57,-11.77,12.15,1415,1381,1388,1370
359008,-85,-831,15544,208.57,180.90,-48.42,-175.08,-12.15,1586.17,33.48,46.83,1046.03,311.12,-52.15,949.98,23.42,-12.75,10.15,1414,1378,1391,1371
359015,634,1931,15427,201.92,252.73,-17.29,-175.08,-10.53,1586.17,35.04,49.59,1046.10,311.12,-52.15,949.98,24.56,-27.38,11.95,1417,1379,1400,1358
359021,493,-1273,16603,163.34,216.02,-46.56,-175.08,-10.53,1586.17,36.37,49.35,1045.88,311.12,-50.85,944.82,24.93,-10.59,10.79,1415,1377,1387,1371
359027,146,1712,15776,150.04,296.63,-57.73,-175.08,-10.53,1586.17,38.63,51.65,1045.72,311.12,-50.85,944.82,19.85,-25.35,11.20,1411,1381,1399,1360
359033,291,-1850,18850,114.39,259.12,-40.70,-175.08,-10.53,1586.17,40.23,51.14,1045.55,311.12,-50.85,944.82,22.33,-8.95,10.98,1413,1379,1386,1372
359041,1437,1244,16347,144.19,293.70,-70.76,-175.08,-7.29,1582.28,41.03,52.70,1045.27,311.12,-50.85,944.82,27.89,-21.26,10.46,1417,1374,1396,1363
359046,-692,32,16646,159.62,320.04,-21.55,-175.08,-7.29,1582.28,43.91,52.97,1045.28,311.12,-50.85,944.82,13.68,-14.14,12.13,1407,1386,1389,1367
359053,1785,-99,14857,139.67,356.48,-70.23,-175.08,-7.29,1580.33,45.13,53.33,1044.95,311.12,-50.85,944.82,25.14,-14.53,10.17,1415,1376,1391,1369
359059,-943,487,17383,165.21,406.23,-48.42,-175.08,-7.29,1580.33,48.77,54.02,1044.84,311.12,-50.85,944.82,8.64,-16.91,11.34,1403,1390,1392,1366
359066,2103,-486,16980,120.78,398.78,-64.91,-175.08,-7.29,1574.49,50.35,54.10,1044.54,311.12,-50.85,944.82,22.46,-13.07,10.31,1413,1378,1390,1370
359072,-234,-52,16000,86.99,407.56,-59.59,-175.08,-7.29,1574.49,53.29,53.44,1044.33,311.12,-50.85,943.53,13.12,-8.49,10.79,1407,1387,1387,1374
359078,552,-174,16054,149.78,359.41,-50.01,-175.08,-7.29,1574.49,55.00,53.32,1044.12,311.12,-50.85,943.53,21.19,-11.80,10.91,1413,1381,1389,1371
359085,465,395,16066,104.55,392.66,-69.43,-175.08,-7.29,1574.49,56.36,53.28,1043.88,311.12,-50.85,943.53,21.92,-12.29,10.53,1414,1380,1390,1371
359092,-649,618,16012,202.98,365.26,-21.81,-175.08,-7.29,1574.49,59.92,54.22,1043.97,311.12,-50.85,943.53,9.04,-18.18,12.55,1405,1391,1393,1365
359097,2201,-271,16275,125.30,368.99,-87.79,-175.08,-7.29,1574.49,61.08,54.46,1043.55,311.12,-50.85,943.53,22.75,-14.15,9.37,1413,1378,1392,1371
359104,-1431,158,17623,174.25,332.27,-39.37,-178.23,-4.05,1572.54,64.52,54.93,1043.41,311.12,-50.85,943.53,10.46,-15.25,11.22,1405,1389,1392,1368
359110,2070,158,15378,178.24,337.86,-59.06,-178.23,-4.05,1572.54,65.40,55.67,1043.17,311.12,-50.85,943.53,23.88,-17.53,10.42,1415,1378,1394,1367
359117,-385,92,15224,165.47,321.10,-53.74,-178.23,-4.05,1574.49,67.69,55.42,1042.91,311.12,-50.85,943.53,16.52,-11.36,10.49,1409,1384,1389,1372
359123,144,2249,13588,191.81,295.30,-51.61,-178.23,-4.05,1574.49,69.16,57.80,1042.80,311.12,-50.85,944.82,20.10,-27.46,11.08,1413,1382,1401,1359
359130,2038,-671,16113,113.60,280.93,-40.44,-179.81,-4.05,1580.33,69.93,57.84,1042.61,311.12,-50.85,944.82,24.60,-13.24,10.64,1416,1378,1391,1370
359136,-1112,-76,17526,76.62,254.06,-41.50,-179.81,-4.05,1580.33,72.08,57.23,1042.41,311.12,-50.85,944.82,15.22,-9.18,10.50,1408,1385,1388,1373
359143,1754,-1043,16624,49.75,253.80,-49.48,-179.81,0.81,1572.54,72.79,56.67,1042.13,311.12,-50.85,944.82,24.63,-9.77,10.09,1415,1377,1388,1373
359149,-2225,144,18328,66.24,247.94,-29.26,-179.81,0.81,1572.54,75.33,56.50,1042.02,311.12,-50.85,944.82,12.15,-11.75,10.99,1406,1388,1389,1371
359155,1965,1234,15835,87.26,210.96,-59.06,-192.43,4.05,1572.54,75.44,57.27,1041.74,311.12,-50.85,944.82,27.64,-17.36,10.04,1418,1375,1394,1368
359161,1001,670,13571,123.97,198.99,-26.60,-192.43,4.05,1572.54,75.45,57.95,1041.68,311.12,-50.85,944.82,28.26,-17.42,11.19,1419,1375,1393,1367
359169,-383,-257,16105,55.33,147.65,-75.82,-192.43,4.05,1572.54,76.29,56.94,1041.16,311.12,-50.85,944.82,23.50,-7.31,8.69,1413,1377,1388,1376
359175,2066,179,16297,-4.52,140.47,-33.25,-192.43,4.05,1572.54,75.97,56.58,1040.99,309.82,-50.85,946.11,29.99,-10.72,10.39,1420,1374,1389,1372
359182,-810,343,17322,52.94,126.63,-70.50,-192.43,0.81,1572.54,77.32,55.62,1040.55,309.82,-50.85,946.11,20.41,-7.45,8.90,1411,1380,1387,1376
359187,1698,-76,14737,38.57,119.18,-27.14,-192.43,0.81,1572.54,76.92,55.42,1040.42,309.82,-50.85,946.11,30.45,-11.46,10.44,1420,1373,1389,1372
359194,-933,488,15314,55.33,131.15,-62.78,-194.01,0.81,1572.54,78.90,54.91,1040.07,309.82,-50.85,946.11,16.74,-9.88,9.36,1409,1383,1389,1374
359200,1387,-427,16366,85.93,108.54,-42.30,-194.01,0.81,1572.54,78.55,54.77,1039.82,309.82,-50.85,946.11,29.95,-11.77,9.66,1419,1373,1390,1372
359207,-372,1061,16430,56.40,126.37,-41.77,-195.58,0.81,1580.33,78.38,55.99,1039.80,309.82,-50.85,946.11,28.72,-19.60,11.13,1419,1375,1395,1365
359214,1641,-2445,16955,-37.51,55.07,-56.40,-195.58,0.81,1580.33,78.06,54.73,1039.41,309.82,-50.85,946.11,29.85,-4.79,8.75,1418,1372,1386,1378
359220,190,2019,15959,39.37,70.50,-32.99,-195.58,2.43,1580.33,77.79,56.13,1039.33,309.82,-50.85,946.11,29.29,-20.59,10.77,1419,1374,1396,1364
359226,611,-1340,17307,6.92,16.49,-73.96,-195.58,2.43,1580.33,77.32,55.04,1038.81,309.82,-50.85,948.69,30.78,-6.10,7.64,1418,1371,1387,1378
359233,-104,2056,15455,22.88,25.01,-41.77,-195.58,0.81,1580.33,77.04,56.46,1038.67,309.82,-50.85,948.69,29.50,-20.77,10.02,1419,1374,1397,1365
359239,1193,-746,17480,-22.08,-6.92,-75.82,-195.58,0.81,1580.33,76.15,55.48,1038.17,309.82,-50.85,948.69,33.70,-6.53,7.57,1420,1369,1388,1378
359246,-71,746,16036,-51.88,-19.15,-71.56,-198.74,2.43,1576.44,74.72,54.89,1037.79,309.82,-50.85,948.69,36.27,-9.35,8.51,1423,1367,1389,1375
359251,395,-39,16565,-72.09,-15.16,-82.20,-198.74,2.43,1576.44,73.78,53.58,1037.26,309.82,-50.85,948.69,34.21,-4.30,7.34,1421,1368,1386,1380
359259,1715,-941,14258,-134.35,-27.93,-94.44,-198.74,2.43,1572.54,72.56,51.80,1036.57,309.82,-50.85,948.69,35.36,-2.33,6.67,1421,1367,1385,1382
359265,-1473,2851,14501,-102.42,-75.02,-86.19,-198.74,2.43,1572.54,72.66,52.22,1036.13,309.82,-50.85,948.69,27.80,-15.03,7.68,1416,1373,1394,1371
359272,3010,-1522,16084,-216.55,-50.81,-80.87,-198.74,2.43,1574.49,71.19,49.93,1035.51,309.82,-50.85,948.69,36.73,0.54,7.02,1422,1366,1383,1384
359278,-2368,2771,15184,-193.14,-8.25,-83.53,-198.74,2.43,1574.49,72.03,49.59,1035.06,311.12,-50.85,948.69,23.68,-10.02,7.67,1413,1376,1390,1375
359285,2959,-903,15979,-269.76,18.62,-66.51,-200.32,2.43,1574.49,70.93,47.09,1034.58,311.12,-50.85,948.69,34.85,1.91,7.67,1421,1368,1381,1384
359291,-1260,792,18552,-274.01,47.35,-90.45,-200.32,2.43,1574.49,72.44,45.50,1034.12,311.12,-50.85,948.69,19.19,-1.57,7.38,1409,1380,1384,1382
359298,1890,-227,16235,-339.99,81.14,-74.22,-200.32,0.81,1574.49,71.73,42.66,1033.62,311.12,-50.85,948.69,32.65,4.47,7.45,1419,1369,1379,1386
359304,14,-1032,14648,-420.07,105.61,-96.04,-200.32,0.81,1574.49,72.09,38.94,1033.01,311.12,-50.85,948.69,26.45,12.80,6.27,1414,1373,1374,1394
359311,682,1283,14254,-339.46,89.39,-89.39,-198.74,-2.43,1574.49,71.65,37.42,1032.52,311.12,-50.85,948.69,31.19,-2.17,7.31,1418,1370,1385,1381
359317,1616,-116,18008,-413.41,220.54,-82.74,-198.74,-2.43,1574.49,71.84,34.55,1032.07,311.12,-50.85,948.69,27.50,7.83,7.15,1415,1373,1377,1389
359324,-1853,969,15262,-377.50,215.49,-120.51,-198.74,-2.43,1574.49,74.63,32.41,1031.35,311.12,-50.85,948.69,13.07,1.75,5.96,1403,1383,1383,1385
359330,2971,-466,15668,-462.90,267.36,-83.27,-198.74,-2.43,1574.49,75.11,29.11,1030.85,311.12,-52.15,952.56,25.44,9.81,6.48,1414,1375,1377,1392
359337,-712,671,15668,-409.69,279.07,-116.52,-198.74,-2.43,1574.49,77.65,27.46,1030.28,311.12,-52.15,952.56,14.23,-0.55,6.20,1405,1383,1385,1384
359343,2243,-17,15806,-482.85,386.01,-87.52,-198.74,-2.43,1574.49,78.78,24.40,1029.82,311.12,-52.15,952.56,20.67,10.18,6.33,1410,1379,1377,1393
359350,-110,-994,13104,-454.38,358.35,-111.73,-200.32,-10.53,1574.49,80.76,20.04,1029.04,311.12,-52.15,952.56,16.42,16.12,4.79,1406,1381,1374,1398
359356,248,1109,15696,-439.22,382.02,-106.15,-200.32,-10.53,1574.49,82.21,18.21,1028.54,311.12,-52.15,952.56,18.24,3.16,5.92,1408,1380,1383,1387
359363,724,-313,16426,-465.82,432.04,-93.11,-200.32,-12.15,1574.49,83.89,14.54,1027.93,311.12,-52.15,952.56,18.04,12.23,5.70,1408,1380,1376,1395
359368,34,2017,17799,-464.49,462.36,-106.15,-200.32,-12.15,1574.49,86.14,12.80,1027.44,311.12,-52.15,952.56,12.66,3.30,5.83,1404,1384,1383,1388
359375,1380,-1167,15352,-540.58,466.35,-92.58,-200.32,-15.38,1574.49,88.18,8.30,1026.78,311.12,-52.15,952.56,15.61,17.30,5.31,1406,1382,1372,1399
359382,-83,929,14795,-478.33,474.87,-112.53,-200.32,-15.38,1574.49,90.40,6.18,1026.18,311.12,-50.85,949.98,13.24,5.81,5.59,1403,1383,1380,1389
359389,132,-973,13482,-470.61,518.50,-107.48,-208.20,-17.00,1576.44,92.95,1.97,1025.39,311.12,-50.85,949.98,11.84,17.30,4.63,1401,1383,1372,1398
359395,641,298,15857,-511.58,505.99,-125.57,-208.20,-17.00,1576.44,94.82,-0.84,1024.68,311.12,-50.85,949.98,14.04,11.91,4.43,1403,1381,1376,1394
359401,700,232,17334,-510.52,537.65,-125.30,-209.78,-17.00,1576.44,97.18,-4.10,1023.85,311.12,-50.85,949.98,12.62,12.45,4.26,1402,1382,1376,1395
359407,1228,-1386,15546,-423.79,526.48,-121.31,-209.78,-17.00,1576.44,99.25,-7.22,1023.06,311.12,-50.85,949.98,12.25,14.69,3.74,1401,1382,1374,1397
359414,230,496,16353,-402.77,560.00,-146.85,-211.36,-28.34,1576.44,101.90,-9.45,1022.09,311.12,-50.85,949.98,10.52,7.26,3.28,1399,1383,1380,1392
359420,867,-1030,17129,-403.84,527.28,-117.85,-211.36,-28.34,1576.44,103.90,-12.30,1021.31,311.12,-50.85,949.98,12.09,13.53,3.64,1401,1382,1375,1396
359428,375,1515,15770,-310.73,571.97,-145.79,-216.09,-33.20,1580.33,106.93,-13.51,1020.37,311.12,-50.85,949.98,7.81,2.18,3.22,1397,1385,1384,1388
359434,-410,-832,16261,-262.04,567.98,-130.36,-216.09,-33.20,1580.33,109.34,-15.79,1019.45,311.12,-50.85,949.98,9.54,9.63,2.74,1400,1385,1381,1396
359440,566,1090,15330,-233.84,569.04,-144.72,-220.82,-33.20,1576.44,112.13,-16.65,1018.49,311.12,-50.85,949.98,8.29,0.70,2.87,1399,1386,1388,1389
359446,461,-905,17458,-205.38,603.89,-126.10,-220.82,-33.20,1576.44,114.56,-18.22,1017.64,311.12,-50.85,949.98,8.12,6.11,2.74,1399,1386,1384,1393
359453,794,292,15692,-109.07,619.06,-140.73,-227.13,-33.20,1576.44,117.51,-18.66,1016.64,311.12,-50.85,949.98,6.98,-1.45,2.48,1398,1387,1390,1388
359459,468,-1222,13947,-72.36,639.28,-148.71,-227.13,-33.20,1576.44,120.22,-19.70,1015.62,311.12,-50.85,949.98,5.63,2.88,1.37,1396,1387,1387,1392
359465,1816,-102,15313,29.00,612.94,-126.90,-227.13,-33.20,1576.44,123.05,-19.48,1014.68,311.12,-50.85,949.98,6.89,-4.98,2.54,1398,1387,1392,1385
359472,276,-1812,15344,32.72,614.80,-171.32,-227.13,-33.20,1576.44,125.74,-20.13,1013.49,311.12,-50.85,949.98,5.16,0.42,0.06,1395,1387,1390,1391
359479,-304,-266,17951,166.54,625.18,-115.99,-230.28,-36.44,1562.80,128.64,-18.92,1012.63,311.12,-50.85,949.98,5.72,-10.56,2.75,1397,1388,1397,1380
359485,-318,1238,17084,271.35,659.49,-169.20,-230.28,-36.44,1562.80,131.92,-16.44,1011.59,309.82,-50.85,949.98,1.73,-18.97,1.16,1393,1390,1404,1375
359492,772,-1490,16849,332.54,625.97,-139.67,-230.28,-36.44,1562.80,135.00,-14.79,1010.46,309.82,-50.85,949.98,4.26,-13.28,1.14,1395,1388,1400,1379
359498,1379,1165,14873,477.26,631.56,-177.44,-230.28,-36.44,1562.80,137.69,-11.59,1009.40,309.82,-50.85,949.98,3.66,-24.93,0.41,1394,1388,1409,1371
359505,1282,-2342,15387,471.41,597.78,-157.23,-231.86,-36.44,1558.91,140.64,-9.27,1008.16,309.82,-50.85,949.98,3.95,-17.81,0.13,1394,1388,1404,1377
359511,376,1358,14330,528.34,584.74,-173.99,-231.86,-36.44,1558.91,143.13,-5.62,1007.18,309.82,-50.85,949.98,4.15,-28.72,0.60,1394,1388,1412,1368
359518,331,-2630,15552,560.53,611.34,-194.74,-235.02,-33.20,1553.07,146.31,-3.03,1005.70,309.82,-50.85,949.98,1.63,-20.39,-1.69,1391,1388,1408,1376
359524,-519,1727,17939,667.48,590.86,-150.57,-235.02,-33.20,1553.07,148.96,1.65,1004.90,309.82,-50.85,949.98,2.51,-35.90,1.52,1394,1390,1417,1362
359531,1456,173,16884,735.05,539.78,-201.92,-235.02,-33.20,1553.07,151.34,6.58,1003.50,309.82,-50.85,949.98,6.00,-33.90,-1.23,1394,1385,1418,1365
359537,110,-148,16061,732.39,501.21,-159.09,-235.02,-33.20,1553.07,153.29,10.95,1002.48,311.12,-52.15,947.40,7.33,-33.60,0.52,1397,1385,1416,1364
359543,460,901,15863,822.57,451.99,-199.26,-236.59,-31.58,1549.17,155.05,16.60,1001.21,311.12,-52.15,947.40,8.77,-40.22,-0.70,1397,1383,1422,1360
359549,111,-3629,17322,726.00,428.58,-178.24,-236.59,-31.58,1549.17,156.98,19.78,1000.02,311.12,-52.15,947.40,6.27,-28.81,-1.23,1394,1385,1414,1369
359557,104,2923,15111,804.22,388.67,-194.47,-235.02,-18.62,1547.22,158.72,26.00,998.91,311.12,-52.15,947.40,8.49,-44.46,-0.09,1397,1384,1425,1356
359563,1384,-2615,18815,752.87,384.68,-187.82,-235.02,-18.62,1547.22,160.11,29.63,997.72,311.12,-52.15,947.40,9.34,-32.76,-1.51,1397,1382,1417,1367
359569,-1898,3430,16034,774.15,338.93,-189.15,-241.32,-31.58,1547.22,162.24,36.16,996.70,311.12,-52.15,947.40,6.10,-46.49,0.29,1396,1386,1426,1355
359575,2370,-1838,20660,661.62,371.91,-200.06,-241.32,-31.58,1547.22,163.45,39.39,995.49,311.12,-52.15,947.40,10.05,-31.60,-1.93,1397,1381,1416,1368
359582,-1489,772,15904,623.58,299.55,-189.95,-253.94,-31.58,1547.22,164.19,43.56,994.30,311.12,-52.15,947.40,13.52,-34.68,-0.99,1400,1379,1418,1365
359588,3114,-1378,13340,556.54,285.45,-195.80,-253.94,-31.58,1547.22,164.88,46.37,993.07,324.12,-56.04,959.02,14.90,-29.43,-3.41,1398,1376,1415,1370
359596,-628,-1179,15817,520.36,230.65,-172.39,-253.94,-20.24,1547.22,165.62,48.72,991.78,324.12,-56.04,959.02,14.91,-25.54,-3.19,1399,1376,1412,1372
359602,671,3562,12604,495.35,185.16,-201.39,-253.94,-20.24,1547.22,165.99,52.39,990.77,324.12,-56.04,959.02,16.61,-36.36,-2.62,1400,1375,1420,1364
359608,335,-1730,15513,397.19,190.75,-188.88,-255.52,-18.62,1547.22,166.41,53.95,989.36,324.12,-56.04,959.02,16.63,-21.75,-4.10,1399,1374,1409,1376
359614,-393,4083,14166,459.17,91.25,-211.23,-255.52,-18.62,1547.22,166.46,57.61,988.28,324.12,-56.04,959.02,18.62,-36.55,-3.27,1401,1373,1420,1364
359621,1680,-2248,18894,279.33,161.75,-192.87,-257.10,-17.00,1545.28,166.57,58.48,986.86,324.12,-56.04,959.02,18.28,-18.51,-4.47,1400,1372,1407,1379
359627,-1934,2659,20013,256.46,117.32,-216.55,-257.10,-17.00,1545.28,166.62,60.76,985.76,324.12,-56.04,959.02,18.62,-28.51,-3.73,1401,1372,1414,1371
359634,2996,-1885,16719,152.97,113.60,-195.80,-257.10,-15.38,1541.38,166.29,60.92,984.34,324.12,-56.04,959.02,20.73,-14.95,-4.81,1402,1370,1405,1382
359641,-1695,881,15296,121.31,76.62,-226.93,-257.10,-15.38,1541.38,165.64,61.15,982.93,342.33,-74.23,961.60,25.14,-17.59,-6.03,1404,1366,1408,1381
359647,1827,632,15537,86.99,99.76,-196.60,-257.10,-10.53,1541.38,165.06,61.39,981.60,342.33,-74.23,961.60,24.51,-17.62,-5.01,1405,1367,1407,1380
359653,-1458,843,17661,73.42,113.60,-235.70,-257.10,-10.53,1541.38,164.68,61.25,980.16,342.33,-74.23,961.60,23.70,-15.38,-6.79,1403,1366,1407,1383
359660,900,145,17032,-30.59,106.95,-239.16,-257.10,-5.67,1537.49,164.23,60.41,978.54,342.33,-74.23,961.60,23.97,-11.38,-7.22,1402,1366,1404,1386
359666,2018,-2895,14567,-94.71,72.89,-221.07,-257.10,-5.67,1537.49,163.88,58.81,977.10,342.33,-74.23,961.60,23.61,-5.76,-7.30,1402,1366,1400,1391
359672,255,1106,15772,-120.78,4.52,-255.66,-257.10,-5.67,1533.59,162.66,57.75,975.35,342.33,-74.23,961.60,28.36,-9.93,-8.06,1405,1362,1403,1388
359678,446,172,17283,-126.63,18.89,-221.07,-257.10,-5.67,1533.59,161.72,56.41,973.97,342.33,-74.23,961.60,27.65,-7.21,-7.29,1405,1363,1401,1390
359686,-199,743,15403,-194.74,-2.93,-289.71,-260.25,-5.67,1533.59,160.46,54.62,971.96,342.33,-74.23,961.60,28.82,-5.49,-9.95,1404,1360,1401,1393
359692,605,193,18822,-241.56,-13.30,-224.00,-260.25,-5.67,1533.59,159.25,52.51,970.47,351.43,-87.21,956.44,30.34,-4.11,-7.23,1408,1362,1399,1393
359698,777,26,15139,-279.87,-44.43,-284.12,-260.25,-5.67,1533.59,157.81,50.01,968.52,351.43,-87.21,956.44,31.59,-1.95,-9.85,1407,1359,1400,1397
359704,668,0,11987,-371.38,18.62,-233.31,-260.25,-5.67,1533.59,156.85,47.24,967.07,351.43,-87.21,956.44,29.45,1.45,-7.93,1407,1362,1396,1398
359711,-617,1444,9073,-342.65,-3.72,-253.26,-260.25,-2.43,1533.59,156.16,45.79,965.52,351.43,-87.21,956.44,27.26,-7.88,-7.58,1406,1364,1402,1390
359717,2080,-224,2859,-379.89,-19.95,-248.74,-260.25,-2.43,1533.59,154.93,43.10,963.98,351.43,-87.21,956.44,31.34,1.42,-8.85,1408,1360,1396,1398
359724,-546,-285,4111,-441.35,-51.88,-241.82,-268.14,-5.67,1533.59,154.66,38.53,962.13,351.43,-87.21,956.44,25.14,10.82,-9.81,1402,1364,1390,1406
359730,2238,-1445,15202,-596.98,-41.24,-253.26,-268.14,-5.67,1533.59,153.39,34.12,960.48,351.43,-87.21,956.44,31.74,12.98,-9.79,1407,1359,1388,1408
359737,-921,-437,14824,-553.61,-7.71,-202.72,-268.14,-2.43,1529.70,152.38,29.16,958.94,351.43,-87.21,956.44,29.48,13.47,-8.22,1407,1362,1387,1407
359743,2634,766,17411,-546.16,-67.31,-256.46,-268.14,-2.43,1529.70,150.74,25.51,957.30,351.43,-91.11,956.44,33.89,7.86,-9.73,1409,1357,1392,1404
359750,-2241,-231,19861,-682.64,12.77,-188.35,-268.14,-5.67,1533.59,150.29,19.48,955.85,351.43,-91.11,956.44,26.65,20.74,-8.22,1405,1364,1381,1413
359756,-423,3512,14381,-574.63,-59.59,-232.51,-268.14,-5.67,1533.59,149.47,16.92,954.60,351.43,-91.11,956.44,29.40,3.18,-8.12,1407,1362,1394,1399
359762,1999,-614,16766,-689.29,-49.48,-186.75,-268.14,-5.67,1533.59,147.84,11.79,953.28,351.43,-91.11,956.44,33.58,16.46,-7.78,1410,1359,1384,1409
359769,-348,1811,17805,-651.25,-90.98,-225.33,-268.14,-5.67,1533.59,146.39,8.43,952.02,351.43,-91.11,956.44,33.65,9.01,-8.44,1410,1358,1390,1404
359776,2609,-2054,16676,-747.29,-72.89,-197.93,-268.14,-12.15,1533.59,144.64,2.47,950.55,351.43,-91.11,956.44,34.40,21.44,-8.75,1410,1357,1381,1414
359782,-2950,-209,17325,-768.57,-162.01,-179.04,-268.14,-12.15,1533.59,144.83,-2.51,949.44,351.43,-91.11,956.44,23.60,20.69,-7.83,1403,1366,1381,1413
359789,2754,-3,17186,-682.37,-139.14,-190.48,-268.14,-13.77,1535.54,142.51,-7.33,948.13,351.43,-91.11,956.44,37.92,16.62,-8.21,1413,1355,1384,1410
359795,-2457,946,19509,-697.54,-128.76,-137.54,-268.14,-13.77,1535.54,141.82,-10.58,947.45,337.12,-82.02,961.60,27.60,11.05,-5.81,1406,1364,1386,1403
359801,1943,680,16706,-661.36,-217.08,-172.66,-268.14,-18.62,1539.44,138.98,-14.96,946.32,337.12,-82.02,961.60,39.39,16.00,-8.04,1414,1353,1383,1408
359808,-1137,-369,16784,-640.61,-208.57,-119.71,-268.14,-18.62,1539.44,136.52,-18.72,945.66,337.12,-82.02,961.60,39.54,16.01,-6.10,1415,1355,1382,1407
359815,414,1470,17316,-682.91,-296.36,-161.75,-268.14,-25.10,1547.22,133.43,-22.65,944.70,337.12,-82.02,961.60,41.44,14.51,-7.27,1416,1352,1384,1406
359821,2784,-1424,17005,-655.50,-271.62,-112.80,-268.14,-25.10,1547.22,130.61,-26.85,944.04,337.12,-82.02,961.60,42.66,20.02,-6.30,1418,1352,1379,1410
359828,-548,261,18368,-619.32,-355.42,-132.75,-260.25,-38.06,1547.22,127.04,-30.38,943.31,337.12,-82.02,961.60,44.80,13.21,-6.22,1419,1350,1384,1405
359833,3405,-1778,19052,-668.27,-339.72,-119.18,-260.25,-38.06,1547.22,123.83,-34.63,942.64,337.12,-82.02,961.60,46.11,21.43,-6.54,1420,1349,1378,1411
359840,-2392,-12,16705,-603.36,-316.58,-93.91,-268.14,-46.15,1547.22,122.61,-37.87,942.21,337.12,-82.02,961.60,32.50,12.68,-4.75,1411,1361,1383,1403
359846,1724,2017,11013,-500.14,-274.28,-94.97,-268.14,-46.15,1547.22,119.98,-40.19,941.78,330.62,-75.53,968.05,41.08,9.67,-5.68,1431,1367,1400,1415
359854,-1773,-224,13891,-488.70,-267.36,-88.59,-260.25,-55.87,1547.22,119.08,-42.61,941.39,330.62,-75.53,968.05,30.38,9.54,-5.42,1423,1376,1400,1415
359860,3656,423,9093,-411.55,-350.36,-105.88,-260.25,-55.87,1547.22,115.81,-44.86,940.88,330.62,-75.53,968.05,46.60,10.61,-6.49,1434,1363,1400,1417
359866,-580,-156,13707,-417.14,-225.60,-72.89,-260.25,-57.49,1547.22,113.60,-46.54,940.61,330.62,-75.53,968.05,38.49,6.01,-4.81,1429,1370,1403,1412
359872,720,72,16190,-378.03,-238.90,-90.45,-260.25,-57.49,1547.22,111.16,-48.19,940.22,330.62,-75.53,968.05,41.85,7.18,-5.82,1431,1367,1402,1413
359879,2524,-1871,18078,-374.31,-109.34,-73.96,-260.25,-57.49,1549.17,109.09,-50.91,939.75,330.62,-75.53,968.05,38.38,12.54,-6.07,1428,1369,1398,1418
359885,-1652,-1338,18352,-410.22,-133.55,-86.46,-260.25,-57.49,1549.17,109.38,-53.03,939.36,330.62,-75.53,968.05,24.71,10.86,-5.93,1418,1380,1400,1416
359891,3035,132,15134,-284.12,-109.07,-88.32,-260.25,-59.11,1551.12,107.30,-54.59,938.85,330.62,-75.53,968.05,38.23,6.07,-6.34,1428,1369,1404,1413
359898,-2420,615,14816,-261.78,-82.20,-94.44,-260.25,-59.11,1551.12,107.54,-55.31,938.39,324.12,-66.43,974.50,24.55,3.03,-7.08,1418,1380,1408,1412
359905,3674,552,9426,-206.44,-107.48,-93.11,-258.68,-65.59,1551.12,105.51,-56.35,937.85,324.12,-66.43,974.50,37.68,4.62,-7.44,1428,1370,1407,1414
359911,-1418,873,7517,-143.39,-91.52,-109.07,-258.68,-65.59,1551.12,105.58,-56.26,937.34,324.12,-66.43,974.50,25.81,-1.77,-7.71,1418,1379,1412,1409
359918,2550,-320,10122,-177.71,-79.81,-99.23,-258.68,-67.21,1555.01,103.65,-57.30,936.72,324.12,-66.43,974.50,37.13,4.66,-7.97,1427,1370,1407,1414
359923,-2082,-94,16245,-157.76,27.67,-112.27,-258.68,-67.21,1555.01,104.56,-57.41,936.14,324.12,-66.43,974.50,20.54,-0.37,-8.27,1414,1382,1411,1411
359930,766,-424,12685,-88.32,-6.65,-80.34,-249.21,-72.06,1562.80,103.21,-57.54,935.65,324.12,-66.43,974.50,33.90,-0.37,-7.34,1425,1373,1410,1410
359937,1813,-697,15229,-67.31,102.16,-89.65,-249.21,-72.06,1562.80,102.63,-57.73,935.12,324.12,-66.43,974.50,30.28,0.21,-8.15,1421,1375,1411,1411
359944,-276,44,10282,5.05,41.24,-83.80,-246.06,-72.06,1562.80,102.41,-56.47,934.67,324.12,-66.43,974.50,27.82,-8.22,-7.25,1420,1377,1416,1404
359950,1766,-670,4848,1.86,143.66,-75.02,-246.06,-72.06,1562.80,102.05,-56.67,934.14,315.02,-57.34,979.66,27.78,1.12,-8.71,1419,1376,1410,1412
359956,-1159,-191,7873,85.93,82.47,-80.34,-239.75,-73.68,1562.80,103.70,-55.38,933.65,315.02,-57.34,979.66,16.14,-7.45,-8.26,1411,1386,1417,1405
359962,4188,1403,-143,148.18,50.81,-56.93,-239.75,-73.68,1562.80,102.87,-54.11,933.34,315.02,-57.34,979.66,30.71,-8.46,-7.56,1422,1375,1417,1404
359969,-1695,888,4892,126.63,101.09,-75.82,-236.59,-73.68,1562.80,104.54,-52.38,932.88,315.02,-57.34,979.66,15.98,-10.24,-8.16,1410,1386,1419,1403
359975,1807,-413,7932,28.20,126.37,-35.65,-236.59,-73.68,1562.80,104.09,-52.15,932.64,315.02,-57.34,979.66,28.13,-2.09,-7.18,1421,1377,1412,1408
359982,-2834,-965,17125,1.06,259.38,-77.68,-233.44,-76.92,1562.80,107.13,-52.00,932.06,315.02,-57.34,979.66,7.81,-1.51,-9.01,1404,1392,1413,1410
359988,2669,-918,14408,-29.53,241.82,-20.22,-233.44,-76.92,1562.80,107.38,-52.16,931.87,315.02,-57.34,979.66,23.34,0.44,-6.95,1417,1381,1409,1410
359995,1315,-903,13430,10.11,226.93,-20.22,-233.44,-76.92,1562.80,107.56,-52.09,931.66,315.02,-57.34,979.66,23.89,-1.01,-6.94,1417,1381,1411,1409
360001,923,-400,14290,44.43,225.06,15.70,-233.44,-76.92,1562.80,107.77,-51.46,931.72,313.72,-56.04,986.11,23.38,-4.45,-6.11,1418,1382,1413,1406
360007,1074,-297,18542,51.88,377.77,36.18,-233.44,-76.92,1562.80,109.10,-50.58,931.90,313.72,-56.04,986.11,17.17,-5.51,-5.53,1413,1387,1413,1404
360013,-1403,3137,12963,131.15,436.83,0.53,-233.44,-76.92,1562.80,111.81,-48.64,931.91,313.72,-56.04,986.11,6.86,-13.39,-6.47,1405,1394,1420,1399
