timestamp,accelX,accelY,accelZ,gyroX,gyroY,gyroZ,magX,magY,magZ,roll,pitch,yaw,rollLevel,pitchLevel,yawLevel,rollPid,pitchPid,yawPid,output0,output1,output2,output3
29952,342,-134,15574,-16.76,86.73,-35.12,214.51,305.26,1387.54,-21.87,-10.61,-1057.31,-22.34,-10.81,-1057.10,-72.66,-74.71,-109.73,1111,1111,1111,1111
29958,332,-110,15551,-14.63,89.12,-36.71,214.51,305.26,1387.54,-21.38,-10.20,-1057.51,-22.34,-10.81,-1057.10,-63.89,-65.62,-96.06,1111,1111,1111,1111
29965,316,-109,15574,-16.23,89.92,-36.45,214.51,305.26,1387.54,-20.81,-9.85,-1057.70,-22.34,-10.81,-1057.10,-55.78,-57.10,-83.33,1111,1111,1111,1111
29971,349,-105,15591,-13.83,89.92,-34.05,214.51,305.26,1387.54,-20.74,-9.58,-1057.85,-22.34,-10.81,-1057.10,-49.00,-50.30,-73.21,1111,1111,1111,1111
29977,357,-143,15598,-18.09,88.59,-35.91,214.51,305.26,1387.54,-20.78,-9.78,-1058.01,-22.34,-10.81,-1057.10,-42.53,-43.54,-63.70,1111,1111,1111,1111
29983,386,-146,15581,-17.56,89.65,-34.58,214.51,305.26,1387.54,-21.00,-9.95,-1058.16,-22.34,-10.81,-1057.10,-37.09,-38.00,-55.90,1111,1111,1111,1111
29990,359,-154,15692,-17.03,89.65,-34.58,214.51,305.26,1387.54,-20.98,-10.19,-1058.32,-22.34,-10.81,-1057.10,-31.93,-32.50,-48.21,1111,1111,1111,1111
30010,313,-125,15616,-15.43,89.12,-33.25,214.51,305.26,1387.54,-19.56,-9.74,-1058.75,-22.28,-10.77,-1057.10,-20.90,-20.44,-30.14,1111,1111,1111,1111
30016,419,-93,15616,-16.49,84.60,-34.58,214.51,305.26,1387.54,-20.01,-9.57,-1058.91,-22.28,-10.77,-1057.10,-18.02,-18.07,-26.57,1111,1111,1111,1111
30023,431,-196,15584,-14.63,87.52,-34.32,214.51,305.26,1387.54,-20.46,-10.12,-1059.07,-22.28,-10.77,-1057.10,-15.22,-15.17,-23.07,1111,1111,1111,1111
30029,372,-105,15586,-15.43,87.26,-35.91,214.51,305.26,1387.54,-20.63,-9.88,-1059.23,-22.28,-10.77,-1057.10,-13.26,-13.51,-20.40,1111,1111,1111,1111
30035,330,-145,15639,-17.56,87.26,-33.25,216.09,305.26,1387.54,-20.52,-10.12,-1059.34,-22.28,-10.77,-1057.10,-11.52,-11.45,-17.67,1111,1111,1111,1111
30042,323,-115,15605,-14.10,90.72,-35.91,216.09,305.26,1387.54,-20.35,-9.95,-1059.46,-22.28,-10.77,-1057.10,-10.25,-10.18,-15.62,1111,1111,1111,1111
30062,367,-127,15610,-16.49,88.06,-33.52,216.09,305.26,1387.54,-21.05,-10.03,-1059.84,-22.21,-10.73,-1057.10,-5.71,-6.12,-9.85,1111,1111,1111,1111
30068,363,-112,15683,-15.16,86.99,-34.58,216.09,305.26,1387.54,-21.14,-9.86,-1059.97,-22.21,-10.73,-1057.10,-4.96,-5.52,-8.78,1111,1111,1111,1111
30075,362,-172,15598,-16.49,86.99,-33.52,214.51,305.26,1387.54,-21.17,-10.33,-1060.11,-22.21,-10.73,-1057.10,-4.27,-4.40,-7.72,1111,1111,1111,1111
30082,357,-155,15618,-17.03,88.06,-34.32,214.51,305.26,1387.54,-21.15,-10.50,-1060.25,-22.21,-10.73,-1057.10,-3.77,-3.72,-6.92,1111,1111,1111,1111
30088,312,-148,15606,-17.82,90.45,-32.99,216.09,305.26,1387.54,-20.68,-10.64,-1060.37,-22.21,-10.73,-1057.10,-3.63,-3.10,-6.09,1111,1111,1111,1111
30094,401,-136,15581,-17.29,88.06,-33.25,216.09,305.26,1387.54,-21.01,-10.66,-1060.50,-22.21,-10.73,-1057.10,-2.95,-2.71,-5.50,1111,1111,1111,1111
30113,396,-128,15583,-15.70,87.79,-33.52,216.09,303.64,1387.54,-21.98,-10.48,-1060.89,-22.15,-10.69,-1057.10,-1.09,-1.82,-3.87,1111,1111,1111,1111
30119,396,-119,15567,-16.23,85.40,-32.99,216.09,303.64,1387.54,-22.21,-10.34,-1061.02,-22.15,-10.69,-1057.10,-0.79,-1.71,-3.55,1111,1111,1111,1111
30127,364,-161,15620,-17.03,86.19,-32.99,216.09,305.26,1387.54,-22.13,-10.62,-1061.16,-22.15,-10.69,-1057.10,-0.74,-1.25,-3.23,1111,1111,1111,1111
30133,415,-130,15591,-16.23,84.07,-31.66,216.09,305.26,1387.54,-22.42,-10.54,-1061.30,-22.15,-10.69,-1057.10,-0.41,-1.16,-2.99,1111,1111,1111,1111
30140,340,-132,15657,-15.96,88.59,-32.19,216.09,305.26,1387.54,-21.99,-10.41,-1061.44,-22.15,-10.69,-1057.10,-0.69,-1.10,-2.76,1111,1111,1111,1111
30146,350,-156,15652,-17.03,87.79,-33.79,216.09,305.26,1387.54,-21.82,-10.61,-1061.55,-22.15,-10.69,-1057.10,-0.74,-0.82,-2.57,1111,1111,1111,1111
30166,370,-141,15620,-16.23,88.06,-34.32,216.09,305.26,1387.54,-21.95,-10.64,-1061.97,-22.08,-10.66,-1057.10,-0.36,-0.47,-2.11,1111,1111,1111,1111
30173,338,-145,15565,-17.56,86.46,-34.32,217.67,305.26,1387.54,-21.74,-10.75,-1062.08,-22.08,-10.66,-1057.10,-0.47,-0.33,-1.98,1111,1111,1111,1111
30179,382,-139,15611,-14.90,91.52,-33.52,217.67,305.26,1387.54,-21.90,-10.76,-1062.19,-22.08,-10.66,-1057.10,-0.29,-0.28,-1.90,1111,1111,1111,1111
30185,342,-136,15556,-16.23,87.26,-35.65,217.67,305.26,1387.54,-21.74,-10.72,-1062.32,-22.08,-10.66,-1057.10,-0.38,-0.26,-1.82,1111,1111,1111,1111
30192,336,-109,15622,-15.96,87.52,-36.71,217.67,305.26,1387.54,-21.55,-10.41,-1062.44,-22.08,-10.66,-1057.10,-0.49,-0.47,-1.77,1111,1111,1111,1111
30198,346,-114,15660,-12.24,86.99,-35.91,216.09,305.26,1387.54,-21.43,-10.14,-1062.59,-22.08,-10.66,-1057.10,-0.53,-0.62,-1.72,1111,1111,1111,1111
30218,363,-117,15583,-17.56,87.52,-32.99,216.09,305.26,1387.54,-21.67,-9.81,-1062.93,-22.02,-10.62,-1057.10,-0.16,-0.68,-1.60,1111,1111,1111,1111
30224,365,-111,15613,-16.23,88.06,-34.32,216.09,305.26,1387.54,-21.73,-9.68,-1063.05,-22.02,-10.62,-1057.10,-0.10,-0.70,-1.58,1111,1111,1111,1111
30230,354,-166,15587,-15.43,88.06,-32.72,216.09,305.26,1387.54,-21.68,-10.17,-1063.15,-22.02,-10.62,-1057.10,-0.13,-0.24,-1.54,1111,1111,1111,1111
30237,371,-105,15603,-14.63,87.79,-36.18,216.09,305.26,1387.54,-21.77,-9.93,-1063.29,-22.02,-10.62,-1057.10,-0.05,-0.41,-1.55,1111,1111,1111,1111
30243,342,-134,15626,-17.82,89.12,-32.46,216.09,305.26,1387.54,-21.59,-10.02,-1063.40,-22.02,-10.62,-1057.10,-0.18,-0.28,-1.52,1111,1111,1111,1111
30249,314,-128,15591,-14.37,86.46,-32.19,216.09,305.26,1387.54,-21.20,-10.01,-1063.48,-22.02,-10.62,-1057.10,-0.47,-0.27,-1.49,1111,1111,1111,1111
30270,382,-140,15586,-17.82,86.99,-34.32,216.09,305.26,1387.54,-22.00,-10.49,-1063.85,-21.95,-10.58,-1057.10,0.32,0.20,-1.50,1111,1111,1111,1111
30276,367,-138,15610,-16.23,87.79,-32.99,216.09,305.26,1387.54,-22.02,-10.51,-1063.96,-21.95,-10.58,-1057.10,0.30,0.18,-1.50,1111,1111,1111,1111
30282,373,-144,15515,-16.49,88.85,-32.19,216.09,305.26,1387.54,-22.11,-10.60,-1064.08,-21.95,-10.58,-1057.10,0.33,0.23,-1.50,1111,1111,1111,1111
30288,386,-136,15631,-15.96,86.99,-32.19,216.09,305.26,1387.54,-22.26,-10.58,-1064.20,-21.95,-10.58,-1057.10,0.41,0.19,-1.51,1111,1111,1111,1111
30296,369,-105,15568,-15.96,87.26,-33.79,216.09,305.26,1387.54,-22.24,-10.22,-1064.35,-21.95,-10.58,-1057.10,0.34,-0.12,-1.53,1111,1111,1111,1111
30302,381,-123,15600,-16.49,88.32,-37.24,216.09,305.26,1387.54,-22.34,-10.14,-1064.49,-21.95,-10.58,-1057.10,0.38,-0.17,-1.56,1111,1111,1111,1111
30321,371,-138,15586,-16.49,88.06,-34.05,216.09,305.26,1387.54,-22.41,-10.38,-1064.85,-21.89,-10.54,-1057.10,0.31,0.07,-1.59,1111,1111,1111,1111
30327,357,-138,15640,-16.76,89.65,-34.58,216.09,305.26,1387.54,-22.27,-10.41,-1064.96,-21.89,-10.54,-1057.10,0.17,0.08,-1.60,1111,1111,1111,1111
30334,360,-200,15611,-19.42,88.06,-35.12,216.09,305.26,1387.54,-22.14,-11.15,-1065.09,-21.89,-10.54,-1057.10,0.06,0.64,-1.61,1111,1111,1111,1111
30341,367,-147,15624,-17.29,89.39,-33.79,216.09,305.26,1387.54,-22.13,-11.15,-1065.21,-21.89,-10.54,-1057.10,0.04,0.57,-1.62,1111,1111,1111,1111
30348,374,-121,15670,-17.56,88.59,-34.58,214.51,305.26,1387.54,-22.09,-10.83,-1065.38,-21.89,-10.54,-1057.10,0.01,0.26,-1.67,1111,1111,1111,1111
30354,343,-108,15647,-17.56,90.72,-35.12,214.51,305.26,1387.54,-21.78,-10.46,-1065.53,-21.89,-10.54,-1057.10,-0.22,-0.06,-1.70,1111,1111,1111,1111
30360,376,-122,15680,-15.96,87.52,-34.32,216.09,305.26,1387.54,-21.93,-10.33,-1065.67,-21.89,-10.54,-1057.10,-0.08,-0.15,-1.70,1111,1111,1111,1111
30381,380,-140,15614,-17.03,88.06,-34.32,214.51,305.26,1387.54,-22.28,-10.51,-1066.08,-21.82,-10.50,-1057.10,0.24,0.04,-1.78,1111,1111,1111,1111
30387,368,-153,15547,-16.23,88.59,-34.58,214.51,305.26,1387.54,-22.25,-10.68,-1066.23,-21.82,-10.50,-1057.10,0.19,0.17,-1.79,1111,1111,1111,1111
30393,342,-155,15582,-17.29,87.79,-31.66,214.51,305.26,1387.54,-21.97,-10.82,-1066.33,-21.82,-10.50,-1057.10,-0.05,0.26,-1.79,1111,1111,1111,1111
30400,367,-101,15656,-16.23,89.12,-36.45,216.09,305.26,1387.54,-21.97,-10.42,-1066.49,-21.82,-10.50,-1057.10,-0.04,-0.08,-1.81,1111,1111,1111,1111
30406,387,-120,15669,-18.62,89.12,-31.39,216.09,305.26,1387.54,-22.14,-10.33,-1066.59,-21.82,-10.50,-1057.10,0.11,-0.14,-1.81,1111,1111,1111,1111
30413,322,-106,15637,-16.23,87.52,-34.58,214.51,305.26,1387.54,-21.61,-9.96,-1066.74,-21.82,-10.50,-1057.10,-0.32,-0.41,-1.83,1111,1111,1111,1111
30435,373,-111,15588,-16.49,86.73,-34.05,214.51,305.26,1387.54,-22.06,-9.49,-1067.15,-21.76,-10.46,-1057.10,0.17,-0.65,-1.88,1111,1111,1111,1111
30441,363,-150,15662,-16.76,87.79,-34.05,214.51,305.26,1387.54,-22.05,-9.79,-1067.26,-21.76,-10.46,-1057.10,0.15,-0.35,-1.88,1111,1111,1111,1111
30447,379,-99,15582,-19.42,87.79,-34.32,214.51,305.26,1387.54,-22.16,-9.55,-1067.41,-21.76,-10.46,-1057.10,0.22,-0.50,-1.90,1111,1111,1111,1111
30454,378,-154,15580,-15.43,86.99,-33.79,214.51,305.26,1387.54,-22.26,-9.88,-1067.52,-21.76,-10.46,-1057.10,0.28,-0.19,-1.91,1111,1111,1111,1111
30460,327,-189,15545,-16.23,86.73,-34.05,214.51,305.26,1387.54,-21.82,-10.60,-1067.63,-21.76,-10.46,-1057.10,-0.10,0.38,-1.90,1111,1111,1111,1111
30467,388,-133,15644,-16.76,87.52,-33.25,214.51,305.26,1387.54,-22.01,-10.56,-1067.75,-21.76,-10.46,-1057.10,0.06,0.31,-1.92,1111,1111,1111,1111
30489,378,-119,15622,-16.49,86.19,-34.85,214.51,305.26,1387.54,-22.36,-9.96,-1068.22,-21.71,-10.42,-1057.10,0.34,-0.30,-2.02,1111,1111,1111,1111
30494,338,-148,15623,-15.96,89.12,-31.39,214.51,305.26,1387.54,-22.06,-10.18,-1068.31,-21.71,-10.42,-1057.10,0.07,-0.11,-2.00,1111,1111,1111,1111
30501,387,-145,15653,-15.70,90.72,-34.05,216.09,305.26,1387.54,-22.27,-10.37,-1068.42,-21.71,-10.42,-1057.10,0.23,0.05,-2.00,1111,1111,1111,1111
30508,396,-123,15603,-17.29,87.79,-34.58,216.09,305.26,1387.54,-22.51,-10.32,-1068.54,-21.71,-10.42,-1057.10,0.39,0.00,-2.01,1111,1111,1111,1111
30515,345,-163,15576,-17.03,88.59,-31.13,214.51,305.26,1387.54,-22.22,-10.67,-1068.64,-21.71,-10.42,-1057.10,0.13,0.28,-2.00,1111,1111,1111,1111
30521,323,-142,15622,-15.96,86.99,-33.25,214.51,305.26,1387.54,-21.77,-10.69,-1068.74,-21.71,-10.42,-1057.10,-0.23,0.26,-2.00,1111,1111,1111,1111
30542,401,-132,15629,-14.90,88.32,-34.85,217.67,305.26,1387.54,-22.91,-10.75,-1069.10,-21.65,-10.38,-1057.10,0.80,0.22,-2.04,1111,1111,1111,1111
30548,352,-104,15598,-14.37,86.99,-34.58,217.67,305.26,1387.54,-22.75,-10.42,-1069.19,-21.65,-10.38,-1057.10,0.60,-0.06,-2.04,1111,1111,1111,1111
30555,364,-164,15580,-18.62,84.33,-33.52,217.67,305.26,1387.54,-22.77,-10.84,-1069.27,-21.65,-10.38,-1057.10,0.55,0.28,-2.02,1111,1111,1111,1111
30561,404,-138,15614,-17.82,83.00,-34.05,217.67,305.26,1387.54,-23.06,-10.88,-1069.38,-21.65,-10.38,-1057.10,0.72,0.28,-2.03,1111,1111,1111,1111
30568,358,-139,15475,-15.70,86.99,-34.58,216.09,305.26,1387.54,-22.89,-10.86,-1069.50,-21.65,-10.38,-1057.10,0.51,0.23,-2.05,1111,1111,1111,1111
30574,352,-161,15661,-17.56,85.13,-34.85,216.09,305.26,1387.54,-22.69,-11.08,-1069.59,-21.65,-10.38,-1057.10,0.31,0.38,-2.05,1111,1111,1111,1111
30597,365,-111,15610,-15.43,87.79,-34.85,217.67,305.26,1387.54,-22.65,-10.06,-1069.95,-21.60,-10.34,-1057.10,0.20,-0.58,-2.10,1111,1111,1111,1111
30603,351,-128,15546,-15.96,86.73,-36.71,217.67,305.26,1387.54,-22.61,-10.13,-1070.03,-21.60,-10.34,-1057.10,0.16,-0.46,-2.09,1111,1111,1111,1111
30609,396,-152,15566,-17.03,88.59,-32.72,216.09,305.26,1387.54,-22.85,-10.41,-1070.13,-21.60,-10.34,-1057.10,0.34,-0.18,-2.10,1111,1111,1111,1111
30615,433,-100,15632,-16.23,90.72,-33.52,216.09,305.26,1387.54,-23.15,-10.19,-1070.26,-21.60,-10.34,-1057.10,0.55,-0.32,-2.14,1111,1111,1111,1111
30622,344,-150,15607,-18.89,87.52,-32.72,216.09,305.26,1387.54,-22.80,-10.47,-1070.35,-21.60,-10.34,-1057.10,0.23,-0.06,-2.12,1111,1111,1111,1111
30628,352,-139,15613,-17.03,87.52,-33.52,216.09,305.26,1387.54,-22.65,-10.54,-1070.43,-21.60,-10.34,-1057.10,0.10,-0.00,-2.12,1111,1111,1111,1111
30650,358,-160,15587,-17.03,86.19,-34.05,216.09,305.26,1385.59,-22.44,-11.53,-1070.72,-21.54,-10.31,-1057.10,-0.05,0.82,-2.13,1111,1111,1111,1111
30656,361,-206,15565,-15.16,87.52,-34.85,216.09,305.26,1385.59,-22.39,-12.08,-1070.81,-21.54,-10.31,-1057.10,-0.08,1.16,-2.15,1111,1111,1111,1111
30663,409,-132,15589,-16.76,84.86,-34.05,216.09,305.26,1385.59,-22.70,-11.86,-1070.96,-21.54,-10.31,-1057.10,0.19,0.86,-2.19,1111,1111,1111,1111
30669,321,-134,15589,-16.49,87.26,-33.52,216.09,305.26,1385.59,-22.20,-11.61,-1071.06,-21.54,-10.31,-1057.10,-0.20,0.58,-2.20,1111,1111,1111,1111
30675,364,-146,15591,-18.36,85.93,-33.52,212.93,305.26,1385.59,-22.14,-11.51,-1071.20,-21.54,-10.31,-1057.10,-0.21,0.44,-2.24,1111,1111,1111,1111
30682,360,-111,15552,-14.90,88.85,-35.38,212.93,305.26,1385.59,-22.02,-11.09,-1071.35,-21.54,-10.31,-1057.10,-0.27,0.08,-2.29,1111,1111,1111,1111
30704,370,-140,15622,-16.23,88.59,-34.32,216.09,305.26,1385.59,-22.45,-11.12,-1071.68,-21.47,-10.27,-1057.10,0.23,0.11,-2.30,1111,1111,1111,1111
30709,392,-95,15620,-17.56,89.12,-35.65,216.09,305.26,1385.59,-22.60,-10.75,-1071.81,-21.47,-10.27,-1057.10,0.33,-0.17,-2.33,1111,1111,1111,1111
30716,366,-80,15512,-16.49,85.93,-32.99,212.93,305.26,1387.54,-22.46,-10.13,-1071.97,-21.47,-10.27,-1057.10,0.19,-0.62,-2.38,1111,1111,1111,1111
30723,335,-136,15676,-18.09,88.85,-33.79,212.93,305.26,1387.54,-22.08,-10.18,-1072.08,-21.47,-10.27,-1057.10,-0.11,-0.51,-2.39,1111,1111,1111,1111
30730,350,-127,15612,-17.56,87.26,-32.72,216.09,305.26,1385.59,-22.09,-10.23,-1072.14,-21.47,-10.27,-1057.10,-0.08,-0.40,-2.36,1111,1111,1111,1111
30736,360,-103,15578,-15.16,89.39,-32.46,216.09,305.26,1385.59,-22.15,-10.02,-1072.22,-21.47,-10.27,-1057.10,-0.01,-0.52,-2.35,1111,1111,1111,1111
30743,366,-106,15634,-17.03,87.26,-31.39,212.93,305.26,1385.59,-22.15,-9.78,-1072.33,-21.47,-10.27,-1057.10,0.00,-0.63,-2.36,1111,1111,1111,1111
30765,351,-142,15596,-16.23,86.99,-34.32,212.93,305.26,1385.59,-21.82,-10.44,-1072.68,-21.41,-10.23,-1057.10,-0.23,0.15,-2.42,1111,1111,1111,1111
30771,355,-136,15669,-15.43,87.79,-33.25,212.93,305.26,1385.59,-21.78,-10.45,-1072.79,-21.41,-10.23,-1057.10,-0.22,0.14,-2.43,1111,1111,1111,1111
30777,333,-130,15639,-16.23,86.46,-32.99,212.93,305.26,1385.59,-21.57,-10.40,-1072.88,-21.41,-10.23,-1057.10,-0.36,0.09,-2.43,1111,1111,1111,1111
30784,343,-141,15544,-15.96,84.33,-33.25,212.93,305.26,1385.59,-21.53,-10.50,-1072.97,-21.41,-10.23,-1057.10,-0.34,0.16,-2.43,1111,1111,1111,1111
30790,360,-143,15632,-17.82,86.19,-33.79,212.93,305.26,1385.59,-21.60,-10.61,-1073.07,-21.41,-10.23,-1057.10,-0.23,0.22,-2.45,1111,1111,1111,1111
30797,344,-112,15629,-19.95,85.40,-32.72,217.67,305.26,1385.59,-21.71,-10.49,-1073.12,-21.41,-10.23,-1057.10,-0.11,0.11,-2.41,1111,1111,1111,1111
30819,357,-163,15599,-17.29,87.52,-34.05,217.67,305.26,1385.59,-22.25,-11.87,-1073.29,-21.34,-10.19,-1057.10,0.39,1.19,-2.34,1111,1111,1111,1111
30825,411,-180,15615,-17.56,90.19,-33.25,217.67,305.26,1385.59,-22.58,-12.14,-1073.38,-21.34,-10.19,-1057.10,0.61,1.29,-2.36,1111,1111,1111,1111
30832,342,-134,15635,-17.82,87.52,-33.52,217.67,305.26,1387.54,-22.40,-11.90,-1073.46,-21.34,-10.19,-1057.10,0.41,0.95,-2.36,1111,1111,1111,1111
30838,374,-121,15581,-15.70,88.59,-34.32,217.67,305.26,1387.54,-22.53,-11.65,-1073.55,-21.34,-10.19,-1057.10,0.47,0.66,-2.38,1111,1111,1111,1111
30844,356,-141,15603,-17.03,86.73,-36.18,214.51,305.26,1387.54,-22.41,-11.51,-1073.68,-21.34,-10.19,-1057.10,0.33,0.49,-2.43,1111,1111,1111,1111
30852,393,-100,15614,-15.96,88.85,-34.05,214.51,305.26,1387.54,-22.54,-11.10,-1073.82,-21.34,-10.19,-1057.10,0.41,0.13,-2.48,1111,1111,1111,1111
30872,383,-114,15581,-16.76,88.59,-34.05,217.67,305.26,1387.54,-23.21,-10.48,-1074.10,-21.28,-10.15,-1057.10,0.84,-0.37,-2.51,1111,1111,1111,1111
30878,429,-149,15579,-16.49,88.85,-31.66,217.67,305.26,1387.54,-23.57,-10.68,-1074.18,-21.28,-10.15,-1057.10,1.05,-0.17,-2.52,1111,1111,1111,1111
30885,392,-155,15581,-15.96,89.65,-35.12,214.51,305.26,1387.54,-23.61,-10.87,-1074.32,-21.28,-10.15,-1057.10,0.97,0.01,-2.55,1111,1111,1111,1111
30892,312,-87,15608,-18.89,89.92,-35.65,214.51,305.26,1387.54,-22.83,-10.35,-1074.46,-21.28,-10.15,-1057.10,0.29,-0.38,-2.60,1111,1111,1111,1111
30899,415,-140,15568,-17.29,86.73,-33.25,217.67,305.26,1387.54,-23.24,-10.54,-1074.55,-21.28,-10.15,-1057.10,0.59,-0.18,-2.60,1111,1111,1111,1111
30905,411,-151,15576,-17.82,89.12,-31.66,217.67,305.26,1387.54,-23.53,-10.76,-1074.62,-21.28,-10.15,-1057.10,0.77,0.02,-2.59,1111,1111,1111,1111
30926,363,-141,15627,-16.76,86.99,-34.58,217.67,303.64,1387.54,-23.41,-11.16,-1074.80,-21.19,-10.11,-1057.10,0.46,0.37,-2.52,1111,1111,1111,1111
30932,330,-136,15609,-16.23,86.19,-33.25,217.67,303.64,1387.54,-23.06,-11.14,-1074.83,-21.19,-10.11,-1057.10,0.17,0.32,-2.50,1111,1111,1111,1111
30940,359,-131,15555,-15.16,87.52,-33.79,217.67,303.64,1387.54,-23.09,-11.08,-1074.88,-21.19,-10.11,-1057.10,0.19,0.25,-2.49,1111,1111,1111,1111
30946,382,-88,15629,-17.82,89.65,-36.71,217.67,303.64,1387.54,-23.19,-10.69,-1074.98,-21.19,-10.11,-1057.10,0.28,-0.07,-2.52,1111,1111,1111,1111
30952,355,-121,15603,-15.70,89.92,-33.25,214.51,303.64,1387.54,-22.99,-10.51,-1075.07,-21.19,-10.11,-1057.10,0.12,-0.19,-2.54,1111,1111,1111,1111
30958,381,-161,15574,-17.03,89.65,-34.32,214.51,303.64,1387.54,-23.08,-10.82,-1075.16,-21.19,-10.11,-1057.10,0.20,0.08,-2.56,1111,1111,1111,1111
30980,358,-126,15588,-15.70,87.26,-34.05,214.51,303.64,1387.54,-22.72,-10.40,-1075.45,-21.12,-10.07,-1057.10,-0.08,-0.26,-2.63,1111,1111,1111,1111
30987,351,-132,15565,-16.76,86.46,-32.46,217.67,303.64,1387.54,-22.77,-10.54,-1075.47,-21.12,-10.07,-1057.10,0.00,-0.11,-2.59,1111,1111,1111,1111
30993,381,-114,15597,-18.09,86.99,-32.72,217.67,303.64,1387.54,-23.00,-10.48,-1075.52,-21.12,-10.07,-1057.10,0.20,-0.13,-2.58,1111,1111,1111,1111
31000,374,-148,15520,-16.76,90.19,-34.32,216.09,303.64,1387.54,-23.12,-10.74,-1075.59,-21.12,-10.07,-1057.10,0.30,0.09,-2.59,1111,1111,1111,1111
31006,361,-166,15700,-15.96,86.46,-35.38,216.09,303.64,1387.54,-23.08,-11.09,-1075.66,-21.12,-10.07,-1057.10,0.26,0.36,-2.59,1111,1111,1111,1111
31012,344,-149,15623,-15.70,87.52,-32.99,216.09,303.64,1387.54,-22.88,-11.22,-1075.71,-21.12,-10.07,-1057.10,0.10,0.43,-2.58,1111,1111,1111,1111
31035,362,-137,15602,-17.03,88.59,-34.85,216.09,303.64,1387.54,-22.94,-11.17,-1075.95,-21.06,-10.03,-1057.10,0.20,0.26,-2.62,1111,1111,1111,1111
31041,392,-117,15607,-18.62,87.26,-32.19,216.09,303.64,1387.54,-23.15,-11.01,-1076.03,-21.06,-10.03,-1057.10,0.37,0.12,-2.64,1111,1111,1111,1111
31047,371,-100,15550,-15.43,86.46,-34.32,216.09,303.64,1387.54,-23.20,-10.62,-1076.12,-21.06,-10.03,-1057.10,0.39,-0.18,-2.66,1111,1111,1111,1111
31053,325,-125,15604,-14.37,88.85,-34.85,216.09,303.64,1387.54,-22.80,-10.55,-1076.17,-21.06,-10.03,-1057.10,0.06,-0.20,-2.65,1111,1111,1111,1111
31060,357,-151,15599,-16.23,87.26,-35.65,216.09,305.26,1387.54,-22.78,-10.81,-1076.24,-21.06,-10.03,-1057.10,0.07,0.04,-2.66,1111,1111,1111,1111
31067,350,-157,15692,-16.23,87.79,-34.85,216.09,305.26,1387.54,-22.68,-11.06,-1076.30,-21.06,-10.03,-1057.10,0.01,0.23,-2.66,1111,1111,1111,1111
31088,393,-147,15618,-15.70,86.73,-33.79,216.09,305.26,1387.54,-23.52,-11.40,-1076.59,-20.96,-9.99,-1057.10,0.77,0.47,-2.74,1111,1111,1111,1111
31094,349,-87,15608,-16.76,87.52,-31.39,216.09,305.26,1387.54,-23.22,-10.84,-1076.68,-20.96,-9.99,-1057.10,0.48,0.00,-2.76,1111,1111,1111,1111
31101,340,-180,15590,-15.43,89.12,-33.79,216.09,305.26,1387.54,-22.89,-11.39,-1076.74,-20.96,-9.99,-1057.10,0.20,0.44,-2.75,1111,1111,1111,1111
31108,344,-135,15644,-16.76,89.92,-34.05,216.09,305.26,1387.54,-22.70,-11.30,-1076.80,-20.96,-9.99,-1057.10,0.05,0.33,-2.75,1111,1111,1111,1111
31115,363,-136,15606,-17.56,86.19,-33.79,216.09,305.26,1387.54,-22.75,-11.25,-1076.88,-20.96,-9.99,-1057.10,0.12,0.27,-2.76,1111,1111,1111,1111
31121,362,-110,15587,-19.15,88.06,-32.46,216.09,305.26,1387.54,-22.75,-10.98,-1076.95,-20.96,-9.99,-1057.10,0.13,0.05,-2.77,1111,1111,1111,1111
31127,353,-111,15628,-15.16,88.32,-34.32,216.09,305.26,1387.54,-22.68,-10.69,-1077.04,-20.96,-9.99,-1057.10,0.08,-0.17,-2.78,1111,1111,1111,1111
31150,351,-130,15608,-15.70,88.32,-33.52,216.09,305.26,1387.54,-22.54,-10.67,-1077.22,-20.89,-9.95,-1057.10,0.03,-0.07,-2.76,1111,1111,1111,1111
31156,373,-142,15589,-17.29,85.93,-32.99,216.09,305.26,1387.54,-22.71,-10.82,-1077.28,-20.89,-9.95,-1057.10,0.18,0.06,-2.76,1111,1111,1111,1111
31162,372,-204,15620,-15.70,86.99,-34.32,216.09,305.26,1387.54,-22.77,-11.55,-1077.36,-20.89,-9.95,-1057.10,0.24,0.63,-2.78,1111,1111,1111,1111
31168,393,-141,15649,-15.70,84.33,-34.85,216.09,305.26,1387.54,-23.01,-11.52,-1077.45,-20.89,-9.95,-1057.10,0.42,0.56,-2.81,1111,1111,1111,1111
31175,378,-115,15569,-17.29,89.12,-34.05,216.09,305.26,1387.54,-23.10,-11.22,-1077.55,-20.89,-9.95,-1057.10,0.47,0.27,-2.83,1111,1111,1111,1111
31181,341,-129,15628,-15.70,90.98,-34.32,216.09,305.26,1387.54,-22.85,-11.08,-1077.61,-20.89,-9.95,-1057.10,0.24,0.15,-2.84,1111,1111,1111,1111
31203,331,-133,15588,-16.49,88.32,-35.38,216.09,305.26,1387.54,-21.92,-10.92,-1077.81,-20.82,-9.92,-1057.10,-0.51,0.01,-2.84,1111,1111,1111,1111
31209,352,-98,15617,-13.83,86.99,-33.79,216.09,305.26,1387.54,-21.99,-10.60,-1077.87,-20.82,-9.92,-1057.10,-0.37,-0.22,-2.84,1111,1111,1111,1111
31216,368,-134,15599,-16.76,86.99,-32.19,216.09,305.26,1387.54,-22.24,-10.71,-1077.93,-20.82,-9.92,-1057.10,-0.11,-0.09,-2.84,1111,1111,1111,1111
31222,368,-174,15621,-17.03,84.07,-31.92,216.09,305.26,1387.54,-22.40,-11.15,-1077.97,-20.82,-9.92,-1057.10,0.05,0.27,-2.83,1111,1111,1111,1111
31228,418,-152,15596,-17.03,86.73,-35.65,217.67,305.26,1387.54,-22.87,-11.35,-1078.07,-20.82,-9.92,-1057.10,0.44,0.41,-2.86,1111,1111,1111,1111
31235,399,-172,15563,-18.09,90.19,-35.12,217.67,305.26,1387.54,-23.14,-11.67,-1078.15,-20.82,-9.92,-1057.10,0.62,0.63,-2.88,1111,1111,1111,1111
31257,360,-142,15582,-15.70,88.32,-34.85,217.67,305.26,1387.54,-23.16,-11.60,-1078.34,-20.74,-9.88,-1057.10,0.49,0.39,-2.88,1111,1111,1111,1111
31263,475,-103,15555,-17.82,88.85,-35.12,217.67,305.26,1387.54,-23.62,-11.42,-1078.47,-20.74,-9.88,-1057.10,0.82,0.23,-2.94,1111,1111,1111,1111
31270,369,-145,15649,-16.23,86.73,-34.85,216.09,305.26,1387.54,-23.56,-11.42,-1078.56,-20.74,-9.88,-1057.10,0.71,0.22,-2.96,1111,1111,1111,1111
31277,341,-157,15622,-13.04,83.80,-34.05,216.09,305.26,1387.54,-23.26,-11.54,-1078.61,-20.74,-9.88,-1057.10,0.43,0.31,-2.95,1111,1111,1111,1111
31283,343,-103,15601,-17.03,88.59,-34.58,216.09,306.88,1387.54,-22.92,-11.04,-1078.72,-20.74,-9.88,-1057.10,0.15,-0.09,-2.98,1111,1111,1111,1111
31289,355,-112,15623,-15.96,88.85,-35.38,216.09,306.88,1387.54,-22.82,-10.78,-1078.80,-20.74,-9.88,-1057.10,0.09,-0.26,-3.00,1111,1111,1111,1111
31310,394,-114,15619,-17.03,87.79,-32.72,216.09,306.88,1387.54,-23.57,-10.29,-1079.09,-20.67,-9.84,-1057.10,0.77,-0.50,-3.06,1111,1111,1111,1111
31316,379,-140,15546,-18.09,89.92,-34.05,216.09,306.88,1387.54,-23.61,-10.46,-1079.16,-20.67,-9.84,-1057.10,0.75,-0.31,-3.07,1111,1111,1111,1111
31324,346,-116,15576,-14.90,87.52,-34.05,217.67,306.88,1387.54,-23.38,-10.33,-1079.21,-20.67,-9.84,-1057.10,0.51,-0.35,-3.05,1111,1111,1111,1111
31330,370,-159,15588,-16.76,84.60,-32.19,217.67,306.88,1387.54,-23.45,-10.70,-1079.25,-20.67,-9.84,-1057.10,0.54,-0.02,-3.03,1111,1111,1111,1111
31337,372,-111,15603,-15.43,89.12,-37.24,212.93,306.88,1387.54,-23.29,-10.37,-1079.40,-20.67,-9.84,-1057.10,0.39,-0.25,-3.10,1111,1111,1111,1111
31342,354,-110,15568,-14.90,86.73,-33.79,212.93,306.88,1387.54,-23.04,-10.11,-1079.51,-20.67,-9.84,-1057.10,0.19,-0.41,-3.13,1111,1111,1111,1111
31365,355,-146,15639,-17.29,88.06,-33.79,217.67,305.26,1387.54,-23.13,-11.25,-1079.58,-20.60,-9.80,-1057.10,0.31,0.70,-2.99,1111,1111,1111,1111
31371,387,-127,15583,-17.56,84.86,-35.12,217.67,305.26,1387.54,-23.37,-11.20,-1079.65,-20.60,-9.80,-1057.10,0.49,0.60,-3.01,1111,1111,1111,1111
31378,373,-105,15640,-17.56,89.39,-32.99,212.93,306.88,1387.54,-23.20,-10.74,-1079.79,-20.60,-9.80,-1057.10,0.33,0.18,-3.08,1111,1111,1111,1111
31384,373,-107,15616,-16.76,90.98,-33.25,212.93,306.88,1387.54,-23.10,-10.43,-1079.90,-20.60,-9.80,-1057.10,0.25,-0.07,-3.12,1111,1111,1111,1111
31390,344,-166,15676,-16.23,87.26,-33.79,219.24,305.26,1387.54,-23.04,-10.99,-1079.90,-20.60,-9.80,-1057.10,0.22,0.39,-3.07,1111,1111,1111,1111
31396,349,-117,15605,-17.29,88.85,-33.25,219.24,305.26,1387.54,-23.06,-10.90,-1079.91,-20.60,-9.80,-1057.10,0.24,0.29,-3.03,1111,1111,1111,1111
31418,346,-136,15613,-16.49,89.12,-34.32,212.93,305.26,1387.54,-22.16,-10.75,-1080.20,-20.52,-9.76,-1057.10,-0.46,0.10,-3.15,1111,1111,1111,1111
31424,378,-163,15567,-16.49,85.93,-33.52,212.93,305.26,1387.54,-22.35,-11.03,-1080.29,-20.52,-9.76,-1057.10,-0.23,0.32,-3.17,1111,1111,1111,1111
31431,339,-115,15624,-18.36,88.59,-34.05,212.93,305.26,1387.54,-22.14,-10.76,-1080.38,-20.52,-9.76,-1057.10,-0.34,0.08,-3.19,1111,1111,1111,1111
31437,380,-96,15587,-17.29,88.32,-33.79,212.93,305.26,1387.54,-22.30,-10.45,-1080.48,-20.52,-9.76,-1057.10,-0.15,-0.15,-3.22,1111,1111,1111,1111
31444,324,-104,15631,-15.70,86.46,-34.05,212.93,305.26,1387.54,-21.97,-10.14,-1080.56,-20.52,-9.76,-1057.10,-0.35,-0.36,-3.22,1111,1111,1111,1111
31451,350,-129,15621,-17.03,87.52,-34.32,212.93,305.26,1387.54,-22.00,-10.21,-1080.63,-20.52,-9.76,-1057.10,-0.26,-0.25,-3.22,1111,1111,1111,1111
31472,354,-149,15601,-17.82,86.73,-33.25,214.51,305.26,1387.54,-22.40,-11.28,-1080.78,-20.44,-9.72,-1057.10,0.25,0.75,-3.17,1111,1111,1111,1111
31478,314,-159,15569,-17.56,88.06,-35.91,214.51,305.26,1387.54,-22.03,-11.51,-1080.82,-20.44,-9.72,-1057.10,-0.03,0.86,-3.17,1111,1111,1111,1111
31484,405,-151,15632,-15.96,86.99,-34.85,214.51,305.26,1387.54,-22.42,-11.61,-1080.93,-20.44,-9.72,-1057.10,0.30,0.85,-3.21,1111,1111,1111,1111
31491,381,-150,15624,-15.70,87.26,-35.12,214.51,305.26,1387.54,-22.62,-11.66,-1081.01,-20.44,-9.72,-1057.10,0.45,0.81,-3.23,1111,1111,1111,1111
31498,334,-93,15648,-17.03,85.13,-33.52,214.51,305.26,1387.54,-22.34,-11.07,-1081.11,-20.44,-9.72,-1057.10,0.20,0.28,-3.25,1111,1111,1111,1111
31504,382,-109,15601,-19.69,89.12,-34.58,214.51,305.26,1387.54,-22.54,-10.88,-1081.20,-20.44,-9.72,-1057.10,0.36,0.11,-3.27,1111,1111,1111,1111
31511,392,-128,15640,-18.09,85.40,-32.72,212.93,305.26,1385.59,-22.80,-10.82,-1081.30,-20.44,-9.72,-1057.10,0.55,0.07,-3.30,1111,1111,1111,1111
31533,348,-137,15613,-17.29,88.06,-34.05,214.51,305.26,1385.59,-22.52,-11.01,-1081.47,-20.37,-9.68,-1057.10,0.21,0.25,-3.28,1111,1111,1111,1111
31539,303,-142,15556,-16.49,89.39,-34.58,214.51,305.26,1385.59,-22.02,-11.09,-1081.51,-20.37,-9.68,-1057.10,-0.17,0.31,-3.26,1111,1111,1111,1111
31545,334,-89,15630,-17.56,87.52,-34.05,212.93,305.26,1385.59,-21.82,-10.57,-1081.61,-20.37,-9.68,-1057.10,-0.27,-0.12,-3.29,1111,1111,1111,1111
31551,402,-147,15615,-17.03,88.85,-34.85,212.93,305.26,1385.59,-22.16,-10.74,-1081.70,-20.37,-9.68,-1057.10,0.05,0.04,-3.32,1111,1111,1111,1111
31558,392,-150,15589,-15.16,88.59,-34.85,214.51,305.26,1385.59,-22.50,-10.96,-1081.79,-20.37,-9.68,-1057.10,0.34,0.23,-3.34,1111,1111,1111,1111
31564,389,-111,15611,-16.76,86.46,-36.45,214.51,305.26,1385.59,-22.75,-10.79,-1081.89,-20.37,-9.68,-1057.10,0.52,0.08,-3.37,1111,1111,1111,1111
31587,357,-154,15589,-15.70,86.19,-35.12,214.51,305.26,1385.59,-22.85,-11.63,-1082.09,-20.29,-9.64,-1057.10,0.50,0.79,-3.36,1111,1111,1111,1111
31593,349,-171,15584,-17.29,90.19,-35.38,214.51,305.26,1385.59,-22.74,-11.91,-1082.16,-20.29,-9.64,-1057.10,0.39,0.93,-3.37,1111,1111,1111,1111
31599,342,-125,15496,-18.36,89.92,-36.45,214.51,305.26,1385.59,-22.57,-11.63,-1082.25,-20.29,-9.64,-1057.10,0.25,0.63,-3.39,1111,1111,1111,1111
31605,383,-117,15564,-16.23,85.13,-31.92,214.51,305.26,1385.59,-22.78,-11.40,-1082.32,-20.29,-9.64,-1057.10,0.41,0.40,-3.40,1111,1111,1111,1111
31612,350,-147,15629,-16.76,85.93,-32.46,212.93,305.26,1385.59,-22.65,-11.43,-1082.39,-20.29,-9.64,-1057.10,0.30,0.40,-3.40,1111,1111,1111,1111
31619,340,-131,15610,-15.43,86.73,-33.52,212.93,305.26,1385.59,-22.46,-11.26,-1082.46,-20.29,-9.64,-1057.10,0.15,0.25,-3.41,1111,1111,1111,1111
31640,360,-124,15617,-16.76,87.52,-34.32,214.51,305.26,1385.59,-22.72,-10.83,-1082.68,-20.21,-9.60,-1057.10,0.41,-0.13,-3.43,1111,1111,1111,1111
31646,359,-166,15584,-17.82,86.46,-35.12,214.51,305.26,1385.59,-22.77,-11.19,-1082.74,-20.21,-9.60,-1057.10,0.43,0.19,-3.43,1111,1111,1111,1111
31653,351,-123,15593,-16.76,85.40,-34.32,216.09,305.26,1387.54,-22.81,-11.07,-1082.78,-20.21,-9.60,-1057.10,0.44,0.09,-3.42,1111,1111,1111,1111
31660,377,-193,15595,-15.96,89.39,-33.52,216.09,305.26,1387.54,-22.94,-11.62,-1082.83,-20.21,-9.60,-1057.10,0.54,0.53,-3.41,1111,1111,1111,1111
31667,361,-107,15642,-16.76,85.93,-35.12,214.51,303.64,1385.59,-22.96,-11.23,-1082.92,-20.21,-9.60,-1057.10,0.52,0.19,-3.43,1111,1111,1111,1111
31672,390,-100,15626,-16.76,86.73,-33.52,214.51,303.64,1385.59,-23.17,-10.93,-1083.00,-20.21,-9.60,-1057.10,0.66,-0.04,-3.45,1111,1111,1111,1111
31694,394,-149,15628,-17.03,87.79,-33.79,216.09,303.64,1387.54,-24.14,-11.65,-1083.17,-20.16,-9.57,-1057.10,1.32,0.63,-3.45,1111,1111,1111,1111
31700,369,-142,15592,-20.48,88.06,-34.58,216.09,303.64,1387.54,-24.10,-11.65,-1083.22,-20.16,-9.57,-1057.10,1.18,0.59,-3.44,1111,1111,1111,1111
31708,337,-138,15599,-17.03,89.92,-34.58,214.51,303.64,1387.54,-23.58,-11.52,-1083.29,-20.16,-9.57,-1057.10,0.68,0.44,-3.45,1111,1111,1111,1111
31714,376,-148,15559,-15.43,85.66,-34.85,214.51,303.64,1387.54,-23.66,-11.58,-1083.35,-20.16,-9.57,-1057.10,0.71,0.45,-3.47,1111,1111,1111,1111
31720,348,-121,15652,-16.23,87.79,-35.65,216.09,305.26,1387.54,-23.43,-11.30,-1083.42,-20.16,-9.57,-1057.10,0.49,0.21,-3.47,1111,1111,1111,1111
31726,326,-136,15512,-18.36,89.65,-34.85,216.09,305.26,1387.54,-23.08,-11.30,-1083.45,-20.16,-9.57,-1057.10,0.21,0.21,-3.46,1111,1111,1111,1111
31748,359,-164,15568,-16.23,88.32,-33.52,216.09,305.26,1387.54,-23.20,-12.31,-1083.55,-20.12,-9.53,-1057.10,0.37,1.03,-3.42,1111,1111,1111,1111
31755,356,-129,15604,-17.82,86.99,-33.52,216.09,305.26,1387.54,-23.15,-12.04,-1083.61,-20.12,-9.53,-1057.10,0.33,0.73,-3.43,1111,1111,1111,1111
31761,334,-165,15572,-16.49,86.19,-34.58,216.09,305.26,1387.54,-22.94,-12.22,-1083.64,-20.12,-9.53,-1057.10,0.17,0.81,-3.42,1111,1111,1111,1111
31768,368,-146,15564,-15.70,89.12,-33.25,216.09,305.26,1387.54,-23.06,-12.17,-1083.70,-20.12,-9.53,-1057.10,0.29,0.70,-3.43,1111,1111,1111,1111
31774,388,-111,15560,-15.70,89.12,-32.99,216.09,305.26,1387.54,-23.24,-11.85,-1083.77,-20.12,-9.53,-1057.10,0.44,0.41,-3.46,1111,1111,1111,1111
31781,398,-112,15618,-16.49,89.39,-32.99,219.24,305.26,1387.54,-23.57,-11.63,-1083.83,-20.12,-9.53,-1057.10,0.69,0.22,-3.47,1111,1111,1111,1111
31803,380,-157,15582,-16.23,86.19,-33.25,219.24,305.26,1387.54,-24.33,-12.38,-1083.89,-20.07,-9.49,-1057.10,1.19,0.85,-3.40,1111,1111,1111,1111
31809,360,-129,15563,-17.56,88.85,-34.58,219.24,305.26,1387.54,-24.23,-12.16,-1083.92,-20.07,-9.49,-1057.10,1.03,0.61,-3.40,1111,1111,1111,1111
31816,381,-106,15562,-15.43,87.52,-31.92,219.24,305.26,1387.54,-24.31,-11.74,-1083.96,-20.07,-9.49,-1057.10,1.02,0.25,-3.41,1111,1111,1111,1111
31822,355,-159,15563,-15.43,87.52,-37.51,219.24,305.26,1387.54,-24.21,-11.94,-1083.98,-20.07,-9.49,-1057.10,0.87,0.41,-3.41,1111,1111,1111,1111
31828,338,-139,15640,-15.70,88.85,-32.72,219.24,305.26,1387.54,-23.90,-11.88,-1083.97,-20.07,-9.49,-1057.10,0.58,0.34,-3.37,1111,1111,1111,1111
31835,353,-133,15649,-13.57,86.73,-32.46,219.24,305.26,1387.54,-23.84,-11.77,-1083.97,-20.07,-9.49,-1057.10,0.52,0.25,-3.35,1111,1111,1111,1111
31856,363,-141,15605,-16.23,86.73,-34.85,219.24,305.26,1387.54,-24.02,-11.85,-1084.02,-20.02,-9.45,-1057.10,0.64,0.33,-3.34,1111,1111,1111,1111
31862,325,-112,15642,-14.90,86.46,-34.32,219.24,305.26,1387.54,-23.64,-11.51,-1084.03,-20.02,-9.45,-1057.10,0.33,0.06,-3.33,1111,1111,1111,1111
31869,327,-125,15602,-16.49,85.93,-33.52,219.24,305.26,1385.59,-23.37,-11.39,-1084.00,-20.02,-9.45,-1057.10,0.14,-0.00,-3.30,1111,1111,1111,1111
31876,375,-81,15677,-17.29,89.12,-34.32,219.24,305.26,1385.59,-23.50,-10.98,-1084.05,-20.02,-9.45,-1057.10,0.27,-0.29,-3.33,1111,1111,1111,1111
31882,358,-117,15680,-14.63,84.33,-35.65,219.24,305.26,1385.59,-23.60,-10.89,-1084.06,-20.02,-9.45,-1057.10,0.37,-0.30,-3.32,1111,1111,1111,1111
31888,351,-141,15643,-14.63,87.79,-34.85,219.24,305.26,1385.59,-23.61,-11.07,-1084.05,-20.02,-9.45,-1057.10,0.38,-0.10,-3.31,1111,1111,1111,1111
31895,369,-160,15643,-15.96,88.59,-34.05,219.24,305.26,1385.59,-23.75,-11.45,-1084.06,-20.02,-9.45,-1057.10,0.49,0.24,-3.30,1111,1111,1111,1111
31917,380,-133,15646,-15.70,87.52,-34.05,219.24,306.88,1387.54,-24.27,-11.39,-1084.17,-19.98,-9.41,-1057.10,0.90,0.19,-3.36,1111,1111,1111,1111
31924,384,-161,15648,-18.62,88.59,-32.72,219.24,306.88,1387.54,-24.38,-11.70,-1084.19,-19.98,-9.41,-1057.10,0.93,0.43,-3.36,1111,1111,1111,1111
31930,377,-145,15587,-16.76,88.85,-33.79,219.24,306.88,1387.54,-24.42,-11.74,-1084.22,-19.98,-9.41,-1057.10,0.91,0.45,-3.37,1111,1111,1111,1111
31936,408,-102,15668,-16.23,89.12,-33.25,219.24,306.88,1387.54,-24.61,-11.37,-1084.30,-19.98,-9.41,-1057.10,1.01,0.14,-3.41,1111,1111,1111,1111
31942,362,-108,15627,-17.03,92.05,-33.52,219.24,306.88,1387.54,-24.43,-11.08,-1084.33,-19.98,-9.41,-1057.10,0.82,-0.08,-3.42,1111,1111,1111,1111
31949,392,-157,15644,-15.96,89.39,-35.91,217.67,306.88,1387.54,-24.53,-11.34,-1084.40,-19.98,-9.41,-1057.10,0.85,0.16,-3.45,1111,1111,1111,1111
31971,342,-129,15586,-16.49,88.59,-34.32,217.67,306.88,1387.54,-23.16,-10.93,-1084.52,-19.91,-9.37,-1057.10,-0.39,-0.14,-3.48,1111,1111,1111,1111
31977,384,-138,15659,-17.03,85.40,-34.32,217.67,306.88,1387.54,-23.40,-11.04,-1084.56,-19.91,-9.37,-1057.10,-0.11,-0.01,-3.49,1111,1111,1111,1111
31984,314,-90,15651,-17.56,88.32,-32.99,217.67,306.88,1387.54,-22.89,-10.56,-1084.59,-19.91,-9.37,-1057.10,-0.43,-0.35,-3.48,1111,1111,1111,1111
31990,347,-176,15603,-15.70,86.19,-36.71,217.67,306.88,1387.54,-22.89,-11.11,-1084.62,-19.91,-9.37,-1057.10,-0.33,0.13,-3.48,1111,1111,1111,1111
31997,354,-107,15611,-16.23,86.99,-34.85,214.51,306.88,1387.54,-22.83,-10.78,-1084.70,-19.91,-9.37,-1057.10,-0.28,-0.12,-3.52,1111,1111,1111,1111
32004,359,-142,15628,-13.83,88.06,-33.25,214.51,306.88,1387.54,-22.85,-10.88,-1084.75,-19.91,-9.37,-1057.10,-0.19,-0.00,-3.53,1111,1111,1111,1111
32025,380,-181,15587,-16.49,87.52,-34.85,217.67,306.88,1387.54,-23.59,-12.63,-1084.90,-19.85,-9.33,-1057.10,0.65,1.50,-3.57,1111,1111,1111,1111
32031,337,-172,15604,-14.37,88.32,-32.99,217.67,306.88,1387.54,-23.33,-12.77,-1084.92,-19.85,-9.33,-1057.10,0.42,1.48,-3.55,1111,1111,1111,1111
32038,290,-138,15575,-15.43,90.19,-34.32,214.51,306.88,1387.54,-22.34,-12.42,-1085.01,-19.85,-9.33,-1057.10,-0.34,1.06,-3.59,1111,1111,1111,1111
32045,381,-143,15599,-17.56,84.60,-33.52,214.51,306.88,1387.54,-22.56,-12.32,-1085.09,-19.85,-9.33,-1057.10,-0.09,0.89,-3.63,1111,1111,1111,1111
32051,351,-141,15645,-15.16,87.26,-33.25,217.67,306.88,1387.54,-22.65,-12.23,-1085.12,-19.85,-9.33,-1057.10,0.03,0.75,-3.61,1111,1111,1111,1111
32057,314,-128,15554,-18.09,88.59,-35.91,217.67,306.88,1387.54,-22.37,-12.02,-1085.14,-19.85,-9.33,-1057.10,-0.15,0.54,-3.59,1111,1111,1111,1111
32078,349,-131,15561,-16.76,86.73,-34.05,217.67,306.88,1387.54,-22.75,-11.66,-1085.23,-19.79,-9.29,-1057.10,0.35,0.16,-3.57,1111,1111,1111,1111
32084,386,-110,15685,-18.36,84.60,-35.12,217.67,306.88,1387.54,-23.02,-11.45,-1085.29,-19.79,-9.29,-1057.10,0.56,0.01,-3.60,1111,1111,1111,1111
32092,365,-73,15632,-17.03,83.00,-34.85,217.67,306.88,1387.54,-23.10,-10.87,-1085.37,-19.79,-9.29,-1057.10,0.60,-0.40,-3.63,1111,1111,1111,1111
32098,382,-138,15599,-17.29,85.93,-34.05,217.67,306.88,1387.54,-23.35,-11.01,-1085.41,-19.79,-9.29,-1057.10,0.77,-0.23,-3.63,1111,1111,1111,1111
32105,339,-128,15567,-16.76,86.73,-36.45,217.67,305.26,1387.54,-23.27,-11.03,-1085.42,-19.79,-9.29,-1057.10,0.66,-0.15,-3.60,1111,1111,1111,1111
32111,415,-105,15603,-16.76,90.72,-33.79,217.67,305.26,1387.54,-23.62,-10.89,-1085.48,-19.79,-9.29,-1057.10,0.90,-0.21,-3.63,1111,1111,1111,1111
32133,355,-122,15593,-16.76,86.73,-34.05,217.67,305.26,1387.54,-23.68,-10.79,-1085.51,-19.74,-9.25,-1057.10,0.76,-0.12,-3.56,1111,1111,1111,1111
32140,345,-120,15550,-17.29,87.79,-32.72,217.67,305.26,1387.54,-23.59,-10.75,-1085.51,-19.74,-9.25,-1057.10,0.65,-0.11,-3.53,1111,1111,1111,1111
32146,334,-160,15493,-16.23,88.85,-34.32,217.67,305.26,1387.54,-23.42,-11.17,-1085.50,-19.74,-9.25,-1057.10,0.49,0.25,-3.51,1111,1111,1111,1111
32153,339,-144,15633,-15.16,87.79,-32.72,216.09,305.26,1387.54,-23.22,-11.29,-1085.50,-19.74,-9.25,-1057.10,0.33,0.34,-3.50,1111,1111,1111,1111
32158,383,-139,15567,-16.23,86.99,-34.05,216.09,305.26,1387.54,-23.44,-11.35,-1085.55,-19.74,-9.25,-1057.10,0.51,0.38,-3.52,1111,1111,1111,1111
32165,371,-148,15591,-14.37,89.39,-36.18,216.09,305.26,1387.54,-23.54,-11.48,-1085.61,-19.74,-9.25,-1057.10,0.58,0.46,-3.55,1111,1111,1111,1111
32187,380,-147,15539,-16.49,86.73,-33.52,216.09,305.26,1387.54,-24.11,-11.81,-1085.76,-19.69,-9.21,-1057.10,0.99,0.65,-3.62,1111,1111,1111,1111
32193,356,-129,15620,-16.76,90.19,-34.58,216.09,305.26,1387.54,-23.92,-11.63,-1085.80,-19.69,-9.21,-1057.10,0.79,0.46,-3.63,1111,1111,1111,1111
32200,373,-126,15560,-17.56,84.86,-36.18,216.09,305.26,1385.59,-23.98,-11.46,-1085.87,-19.69,-9.21,-1057.10,0.79,0.31,-3.66,1111,1111,1111,1111
32206,359,-192,15558,-15.70,86.73,-35.65,216.09,305.26,1385.59,-23.87,-12.00,-1085.92,-19.69,-9.21,-1057.10,0.68,0.72,-3.67,1111,1111,1111,1111
32214,368,-166,15547,-16.23,88.59,-33.52,214.51,305.26,1385.59,-23.80,-12.18,-1085.98,-19.69,-9.21,-1057.10,0.60,0.81,-3.69,1111,1111,1111,1111
32220,427,-170,15591,-19.15,87.26,-32.99,214.51,305.26,1385.59,-24.13,-12.34,-1086.06,-19.69,-9.21,-1057.10,0.84,0.88,-3.73,1111,1111,1111,1111
32241,358,-147,15584,-16.49,87.26,-33.79,214.51,305.26,1385.59,-23.36,-11.90,-1086.28,-19.64,-9.18,-1057.10,0.09,0.31,-3.80,1111,1111,1111,1111
32246,312,-152,15558,-16.23,88.32,-33.25,214.51,305.26,1385.59,-22.83,-11.94,-1086.31,-19.64,-9.18,-1057.10,-0.28,0.34,-3.78,1111,1111,1111,1111
32253,372,-136,15547,-15.96,87.79,-33.52,214.51,305.26,1385.59,-23.00,-11.84,-1086.37,-19.64,-9.18,-1057.10,-0.06,0.26,-3.79,1111,1111,1111,1111
32260,354,-183,15547,-14.90,86.46,-33.25,214.51,305.26,1385.59,-22.99,-12.22,-1086.41,-19.64,-9.18,-1057.10,-0.01,0.56,-3.79,1111,1111,1111,1111
32267,339,-134,15609,-18.36,86.19,-36.18,212.93,305.26,1387.54,-22.73,-11.96,-1086.50,-19.64,-9.18,-1057.10,-0.15,0.34,-3.82,1111,1111,1111,1111
32273,363,-132,15540,-15.70,86.46,-34.05,212.93,305.26,1387.54,-22.79,-11.78,-1086.57,-19.64,-9.18,-1057.10,-0.04,0.20,-3.84,1111,1111,1111,1111
32294,367,-110,15599,-14.90,89.65,-35.38,214.51,305.26,1385.59,-23.07,-10.70,-1086.83,-19.59,-9.14,-1057.10,0.37,-0.63,-3.92,1111,1111,1111,1111
32301,370,-161,15557,-15.70,87.52,-31.66,214.51,305.26,1385.59,-23.20,-11.04,-1086.85,-19.59,-9.14,-1057.10,0.47,-0.26,-3.90,1111,1111,1111,1111
32307,325,-119,15610,-15.70,86.73,-33.79,214.51,305.26,1387.54,-22.85,-10.86,-1086.88,-19.59,-9.14,-1057.10,0.19,-0.34,-3.87,1111,1111,1111,1111
32313,392,-172,15627,-15.96,86.73,-34.32,214.51,305.26,1387.54,-23.11,-11.24,-1086.94,-19.59,-9.14,-1057.10,0.42,0.03,-3.88,1111,1111,1111,1111
32320,377,-103,15626,-16.49,88.32,-35.12,214.51,305.26,1387.54,-23.25,-10.92,-1087.02,-19.59,-9.14,-1057.10,0.53,-0.19,-3.90,1111,1111,1111,1111
32326,341,-97,15570,-15.96,89.12,-31.13,214.51,305.26,1387.54,-23.08,-10.57,-1087.05,-19.59,-9.14,-1057.10,0.39,-0.41,-3.89,1111,1111,1111,1111
32333,380,-120,15531,-15.70,88.06,-32.19,214.51,305.26,1387.54,-23.31,-10.55,-1087.10,-19.59,-9.14,-1057.10,0.57,-0.35,-3.88,1111,1111,1111,1111
32355,380,-133,15616,-16.49,86.99,-33.52,214.51,305.26,1387.54,-23.93,-10.89,-1087.25,-19.53,-9.10,-1057.10,1.02,0.15,-3.89,1111,1111,1111,1111
32361,367,-146,15594,-15.43,86.46,-33.79,214.51,305.26,1387.54,-23.90,-11.03,-1087.29,-19.53,-9.10,-1057.10,0.94,0.27,-3.88,1111,1111,1111,1111
32368,382,-133,15540,-17.29,88.06,-33.25,214.51,305.26,1387.54,-24.01,-11.04,-1087.35,-19.53,-9.10,-1057.10,0.97,0.27,-3.89,1111,1111,1111,1111
32374,377,-91,15677,-16.49,84.33,-32.19,214.51,305.26,1387.54,-24.01,-10.63,-1087.42,-19.53,-9.10,-1057.10,0.91,-0.05,-3.91,1111,1111,1111,1111
32381,385,-127,15626,-17.29,87.52,-35.38,214.51,305.26,1387.54,-24.12,-10.64,-1087.49,-19.53,-9.10,-1057.10,0.95,-0.01,-3.93,1111,1111,1111,1111
32388,364,-152,15528,-17.82,87.79,-36.18,214.51,305.26,1387.54,-24.05,-10.91,-1087.54,-19.53,-9.10,-1057.10,0.84,0.22,-3.93,1111,1111,1111,1111
32408,367,-139,15607,-16.23,88.32,-33.25,214.51,305.26,1387.54,-23.86,-11.15,-1087.66,-19.48,-9.06,-1057.10,0.56,0.42,-3.92,1111,1111,1111,1111
32414,335,-156,15569,-17.56,86.99,-35.91,214.51,305.26,1387.54,-23.53,-11.39,-1087.70,-19.48,-9.06,-1057.10,0.30,0.58,-3.91,1111,1111,1111,1111
32421,349,-151,15544,-16.49,88.32,-34.32,214.51,305.26,1387.54,-23.39,-11.55,-1087.74,-19.48,-9.06,-1057.10,0.22,0.66,-3.91,1111,1111,1111,1111
32428,372,-152,15629,-17.29,87.52,-35.12,214.51,305.26,1387.54,-23.48,-11.67,-1087.79,-19.48,-9.06,-1057.10,0.32,0.71,-3.92,1111,1111,1111,1111
32435,350,-166,15688,-17.03,89.39,-35.12,214.51,305.26,1387.54,-23.31,-11.94,-1087.83,-19.48,-9.06,-1057.10,0.21,0.87,-3.92,1111,1111,1111,1111
32441,364,-140,15621,-15.43,87.79,-32.72,214.51,305.26,1387.54,-23.34,-11.86,-1087.87,-19.48,-9.06,-1057.10,0.26,0.74,-3.92,1111,1111,1111,1111
32462,355,-131,15604,-15.43,87.79,-34.58,214.51,305.26,1387.54,-23.14,-11.28,-1088.04,-19.44,-9.02,-1057.10,0.20,0.09,-3.96,1111,1111,1111,1111
32468,326,-126,15672,-16.76,89.12,-36.71,214.51,305.26,1387.54,-22.85,-11.16,-1088.08,-19.44,-9.02,-1057.10,-0.00,0.03,-3.96,1111,1111,1111,1111
32476,352,-145,15613,-17.56,89.12,-33.79,214.51,305.26,1387.54,-22.88,-11.32,-1088.11,-19.44,-9.02,-1057.10,0.08,0.18,-3.95,1111,1111,1111,1111
32482,337,-156,15640,-14.90,84.07,-32.99,214.51,305.26,1387.54,-22.79,-11.53,-1088.11,-19.44,-9.02,-1057.10,0.05,0.36,-3.92,1111,1111,1111,1111
32489,346,-119,15542,-17.03,89.65,-33.52,214.51,305.26,1387.54,-22.77,-11.32,-1088.15,-19.44,-9.02,-1057.10,0.08,0.18,-3.93,1111,1111,1111,1111
32495,386,-139,15597,-13.57,85.93,-34.05,214.51,305.26,1387.54,-23.05,-11.36,-1088.21,-19.44,-9.02,-1057.10,0.34,0.23,-3.94,1111,1111,1111,1111
32517,375,-155,15631,-17.03,88.32,-33.25,216.09,305.26,1387.54,-23.74,-12.12,-1088.29,-19.39,-8.98,-1057.10,0.94,0.87,-3.92,1118,1117,1123,1124
32524,366,-120,15569,-18.89,88.59,-32.46,216.09,305.26,1387.54,-23.76,-11.83,-1088.33,-19.39,-8.98,-1057.10,0.89,0.57,-3.93,1118,1117,1123,1124
32530,354,-141,15564,-17.29,86.46,-34.32,216.09,305.26,1387.54,-23.70,-11.82,-1088.35,-19.39,-8.98,-1057.10,0.81,0.54,-3.92,1118,1117,1123,1124
32537,370,-146,15629,-16.49,90.98,-36.18,216.09,305.26,1387.54,-23.77,-11.86,-1088.40,-19.39,-8.98,-1057.10,0.82,0.54,-3.94,1118,1117,1123,1124
32543,349,-123,15640,-15.16,88.85,-32.72,216.09,305.26,1387.54,-23.62,-11.63,-1088.42,-19.39,-8.98,-1057.10,0.67,0.33,-3.93,1118,1117,1123,1124
32550,366,-146,15619,-17.56,89.12,-33.52,216.09,305.26,1387.54,-23.69,-11.72,-1088.44,-19.39,-8.98,-1057.10,0.69,0.41,-3.92,1118,1117,1123,1124
32572,349,-126,15561,-15.43,86.73,-33.79,216.09,305.26,1387.54,-23.38,-11.14,-1088.52,-19.34,-8.94,-1057.10,0.37,-0.09,-3.91,1118,1117,1123,1123
32578,365,-113,15586,-18.89,87.79,-35.38,216.09,305.26,1387.54,-23.49,-11.00,-1088.55,-19.34,-8.94,-1057.10,0.47,-0.16,-3.92,1118,1117,1124,1123
32585,358,-151,15557,-15.96,88.06,-33.25,214.51,305.26,1387.54,-23.48,-11.24,-1088.58,-19.34,-8.94,-1057.10,0.46,0.09,-3.92,1118,1117,1123,1123
32591,381,-103,15533,-13.83,85.66,-33.79,214.51,305.26,1387.54,-23.63,-10.95,-1088.65,-19.34,-8.94,-1057.10,0.59,-0.12,-3.95,1118,1117,1124,1123
32599,347,-132,15614,-15.70,89.65,-33.79,214.51,305.26,1387.54,-23.45,-10.95,-1088.67,-19.34,-8.94,-1057.10,0.44,-0.06,-3.95,1118,1117,1123,1123
32605,340,-166,15613,-14.63,86.99,-35.12,214.51,305.26,1387.54,-23.27,-11.34,-1088.69,-19.34,-8.94,-1057.10,0.30,0.27,-3.95,1118,1117,1123,1124
32626,367,-126,15593,-16.23,85.66,-34.32,214.51,305.26,1387.54,-23.61,-11.01,-1088.85,-19.27,-8.90,-1057.10,0.66,0.01,-4.01,1118,1117,1123,1123
32632,325,-105,15594,-15.96,88.06,-34.05,214.51,305.26,1387.54,-23.23,-10.70,-1088.88,-19.27,-8.90,-1057.10,0.34,-0.19,-4.01,1118,1117,1124,1123
32640,381,-119,15592,-14.90,87.52,-34.32,217.67,305.26,1387.54,-23.56,-10.73,-1088.90,-19.27,-8.90,-1057.10,0.62,-0.12,-4.00,1118,1117,1124,1123
32646,400,-132,15611,-16.49,85.93,-35.65,217.67,305.26,1387.54,-23.91,-10.86,-1088.94,-19.27,-8.90,-1057.10,0.87,0.03,-4.01,1118,1117,1123,1123
32653,383,-134,15586,-16.76,90.45,-35.12,217.67,305.26,1387.54,-24.13,-11.00,-1088.97,-19.27,-8.90,-1057.10,1.00,0.17,-4.00,1118,1117,1123,1124
32659,315,-158,15608,-15.16,86.99,-33.25,217.67,305.26,1387.54,-23.66,-11.37,-1088.93,-19.27,-8.90,-1057.10,0.58,0.47,-3.95,1118,1117,1123,1124
32680,330,-124,15622,-15.70,88.32,-34.32,217.67,305.26,1387.54,-22.96,-11.07,-1088.87,-19.21,-8.86,-1057.10,-0.00,0.15,-3.84,1117,1117,1123,1123
32687,354,-127,15627,-16.23,86.99,-32.99,217.67,305.26,1387.54,-23.12,-11.12,-1088.85,-19.21,-8.86,-1057.10,0.18,0.20,-3.83,1118,1117,1123,1123
32694,360,-129,15605,-15.96,87.52,-33.25,216.09,305.26,1387.54,-23.26,-11.13,-1088.86,-19.21,-8.86,-1057.10,0.33,0.22,-3.83,1118,1117,1123,1124
32700,356,-95,15583,-14.90,85.40,-33.79,216.09,305.26,1387.54,-23.31,-10.80,-1088.89,-19.21,-8.86,-1057.10,0.39,-0.03,-3.85,1118,1117,1123,1123
32707,398,-186,15591,-17.82,87.26,-31.66,217.67,305.26,1387.54,-23.64,-11.43,-1088.92,-19.21,-8.86,-1057.10,0.66,0.50,-3.87,1118,1117,1123,1124
32713,344,-148,15598,-16.49,88.85,-35.12,217.67,305.26,1387.54,-23.58,-11.62,-1088.91,-19.21,-8.86,-1057.10,0.60,0.62,-3.85,1118,1117,1123,1124
32720,342,-113,15592,-16.49,90.19,-34.05,217.67,305.26,1387.54,-23.48,-11.35,-1088.91,-19.21,-8.86,-1057.10,0.50,0.37,-3.85,1118,1117,1123,1124
32742,374,-116,15618,-17.56,88.59,-34.85,216.09,305.26,1387.54,-23.96,-10.84,-1089.05,-19.14,-8.82,-1057.10,0.90,-0.07,-3.95,1118,1117,1123,1123
32748,373,-129,15666,-15.70,88.85,-32.46,216.09,305.26,1387.54,-24.03,-10.87,-1089.06,-19.14,-8.82,-1057.10,0.92,-0.01,-3.94,1118,1117,1123,1123
32755,387,-171,15545,-14.90,88.32,-33.79,216.09,305.26,1387.54,-24.21,-11.36,-1089.10,-19.14,-8.82,-1057.10,1.01,0.41,-3.96,1118,1117,1123,1124
32761,342,-105,15607,-16.49,85.93,-34.32,216.09,305.26,1387.54,-23.95,-11.02,-1089.13,-19.14,-8.82,-1057.10,0.75,0.13,-3.97,1118,1117,1123,1124
32769,429,-133,15568,-15.70,87.52,-34.32,216.09,305.26,1387.54,-24.39,-11.08,-1089.21,-19.14,-8.82,-1057.10,1.07,0.20,-4.01,1118,1116,1123,1124
32775,320,-122,15562,-15.96,87.79,-32.46,216.09,305.26,1387.54,-23.85,-10.96,-1089.20,-19.14,-8.82,-1057.10,0.60,0.12,-3.99,1118,1117,1123,1124
32797,359,-127,15610,-16.76,88.06,-34.05,216.09,305.26,1387.54,-23.83,-10.95,-1089.25,-19.08,-8.79,-1057.10,0.57,0.17,-3.97,1118,1117,1123,1124
32803,347,-86,15613,-16.49,89.12,-34.85,216.09,305.26,1387.54,-23.68,-10.53,-1089.29,-19.08,-8.79,-1057.10,0.45,-0.15,-3.98,1118,1117,1124,1123
32811,366,-109,15597,-16.49,85.40,-34.05,216.09,306.88,1387.54,-23.76,-10.39,-1089.32,-19.08,-8.79,-1057.10,0.53,-0.20,-3.99,1118,1117,1124,1123
32817,354,-131,15629,-14.90,89.12,-34.85,216.09,306.88,1387.54,-23.70,-10.51,-1089.33,-19.08,-8.79,-1057.10,0.49,-0.06,-3.99,1118,1117,1124,1123
32824,337,-155,15563,-17.56,88.85,-31.92,214.51,305.26,1387.54,-23.42,-10.94,-1089.33,-19.08,-8.79,-1057.10,0.28,0.31,-3.97,1118,1117,1123,1124
32830,312,-113,15610,-14.90,88.85,-36.18,214.51,305.26,1387.54,-22.94,-10.73,-1089.35,-19.08,-8.79,-1057.10,-0.06,0.14,-3.97,1117,1117,1123,1124
32851,397,-126,15599,-17.56,87.26,-33.79,214.51,305.26,1387.54,-24.06,-10.89,-1089.54,-19.01,-8.75,-1057.10,1.07,0.31,-4.08,1118,1116,1123,1124
32858,397,-170,15625,-16.23,88.32,-33.79,214.51,305.26,1387.54,-24.23,-11.27,-1089.60,-19.01,-8.75,-1057.10,1.15,0.60,-4.10,1118,1116,1123,1124
32865,393,-102,15639,-15.96,87.26,-33.52,214.51,305.26,1385.59,-24.35,-10.91,-1089.68,-19.01,-8.75,-1057.10,1.17,0.28,-4.13,1118,1116,1123,1124
32871,368,-88,15553,-16.49,84.33,-34.05,214.51,305.26,1385.59,-24.27,-10.48,-1089.74,-19.01,-8.75,-1057.10,1.04,-0.05,-4.15,1118,1116,1124,1124
32878,399,-130,15611,-14.63,87.52,-34.85,214.51,305.26,1385.59,-24.50,-10.55,-1089.80,-19.01,-8.75,-1057.10,1.15,0.04,-4.17,1118,1116,1124,1124
32884,362,-139,15610,-17.82,87.52,-32.72,214.51,305.26,1385.59,-24.35,-10.71,-1089.82,-19.01,-8.75,-1057.10,0.98,0.18,-4.15,1118,1116,1123,1124
32906,363,-111,15578,-16.23,89.12,-34.32,214.51,305.26,1385.59,-23.94,-10.08,-1089.97,-18.95,-8.71,-1057.10,0.50,-0.31,-4.17,1118,1117,1124,1123
32912,355,-189,15646,-20.22,85.93,-33.52,214.51,305.26,1385.59,-23.80,-10.82,-1089.99,-18.95,-8.71,-1057.10,0.40,0.33,-4.16,1118,1117,1123,1124
32919,371,-142,15547,-17.56,89.12,-33.79,217.67,305.26,1385.59,-23.99,-11.09,-1089.99,-18.95,-8.71,-1057.10,0.58,0.53,-4.13,1118,1117,1123,1124
32926,430,-153,15648,-20.48,87.26,-35.65,217.67,305.26,1385.59,-24.40,-11.35,-1090.05,-18.95,-8.71,-1057.10,0.90,0.70,-4.16,1118,1117,1123,1124
32932,355,-104,15566,-17.03,89.39,-34.85,217.67,305.26,1385.59,-24.28,-11.03,-1090.07,-18.95,-8.71,-1057.10,0.77,0.39,-4.14,1118,1117,1123,1124
32940,330,-97,15526,-16.49,89.12,-35.91,217.67,305.26,1385.59,-23.97,-10.71,-1090.07,-18.95,-8.71,-1057.10,0.52,0.13,-4.12,1118,1117,1123,1124
32960,356,-110,15592,-17.03,87.52,-35.38,217.67,305.26,1385.59,-24.07,-10.41,-1090.07,-18.88,-8.67,-1057.10,0.64,-0.06,-4.05,1118,1117,1124,1123
32966,358,-134,15635,-15.70,90.45,-34.05,217.67,305.26,1385.59,-24.09,-10.62,-1090.05,-18.88,-8.67,-1057.10,0.65,0.14,-4.02,1118,1117,1123,1124
32973,348,-146,15520,-17.03,89.65,-33.52,217.67,305.26,1385.59,-24.02,-10.99,-1090.02,-18.88,-8.67,-1057.10,0.59,0.43,-3.99,1118,1117,1123,1124
32979,348,-128,15579,-15.96,87.79,-35.38,217.67,305.26,1385.59,-23.96,-11.03,-1090.01,-18.88,-8.67,-1057.10,0.55,0.45,-3.98,1118,1117,1123,1124
32987,359,-152,15616,-16.23,89.12,-33.52,217.67,305.26,1385.59,-24.00,-11.36,-1089.99,-18.88,-8.67,-1057.10,0.59,0.68,-3.96,1118,1117,1123,1124
32993,362,-124,15596,-16.49,85.66,-35.65,217.67,305.26,1385.59,-24.07,-11.30,-1090.00,-18.88,-8.67,-1057.10,0.64,0.59,-3.96,1118,1117,1123,1124
33015,371,-128,15588,-15.43,87.26,-34.58,217.67,305.26,1387.54,-24.49,-11.24,-1090.04,-18.82,-8.63,-1057.10,0.98,0.43,-3.99,1120,1119,1125,1126
33021,337,-154,15597,-15.43,81.67,-31.92,217.67,305.26,1387.54,-24.24,-11.52,-1090.00,-18.82,-8.63,-1057.10,0.75,0.62,-3.95,1120,1119,1125,1126
33029,330,-159,15632,-18.09,87.79,-34.05,217.67,305.26,1385.59,-23.86,-11.86,-1089.96,-18.82,-8.63,-1057.10,0.44,0.85,-3.93,1120,1119,1125,1126
33035,385,-160,15642,-15.96,87.79,-33.25,217.67,305.26,1385.59,-24.08,-12.07,-1089.98,-18.82,-8.63,-1057.10,0.63,0.95,-3.94,1120,1119,1125,1126
33042,387,-91,15586,-18.89,89.12,-32.72,217.67,305.26,1387.54,-24.23,-11.59,-1090.03,-18.82,-8.63,-1057.10,0.75,0.51,-3.98,1120,1119,1125,1126
33048,389,-163,15654,-18.09,89.39,-33.52,217.67,305.26,1387.54,-24.41,-11.88,-1090.04,-18.82,-8.63,-1057.10,0.87,0.71,-3.99,1120,1119,1125,1126
33070,374,-137,15592,-17.03,86.99,-33.52,217.67,305.26,1387.54,-24.66,-11.78,-1090.08,-18.75,-8.59,-1057.10,1.00,0.49,-4.00,1130,1128,1135,1136
33077,368,-158,15614,-15.70,87.79,-34.32,217.67,305.26,1387.54,-24.63,-12.00,-1090.09,-18.75,-8.59,-1057.10,0.93,0.65,-4.00,1130,1128,1135,1136
33083,332,-138,15626,-17.03,90.19,-33.79,217.67,305.26,1387.54,-24.20,-11.92,-1090.07,-18.75,-8.59,-1057.10,0.57,0.56,-3.99,1130,1129,1135,1136
33090,380,-175,15615,-17.29,92.05,-33.52,216.09,305.26,1387.54,-24.27,-12.28,-1090.10,-18.75,-8.59,-1057.10,0.63,0.82,-4.01,1130,1129,1135,1136
33096,377,-164,15623,-16.49,88.59,-32.99,216.09,305.26,1387.54,-24.31,-12.42,-1090.13,-18.75,-8.59,-1057.10,0.67,0.88,-4.02,1130,1129,1135,1136
33103,399,-127,15595,-16.23,86.46,-33.79,216.09,305.26,1387.54,-24.52,-12.16,-1090.20,-18.75,-8.59,-1057.10,0.83,0.62,-4.07,1130,1129,1135,1136
33110,354,-140,15567,-17.29,87.79,-33.52,216.09,305.26,1387.54,-24.31,-12.06,-1090.22,-18.75,-8.59,-1057.10,0.65,0.51,-4.07,1130,1129,1135,1136
33131,335,-131,15614,-15.96,86.46,-34.05,214.51,305.26,1387.54,-22.81,-11.25,-1090.36,-18.69,-8.55,-1057.10,-0.55,-0.18,-4.14,1142,1142,1148,1148
33137,377,-144,15555,-15.16,88.59,-33.79,214.51,305.26,1387.54,-23.05,-11.38,-1090.40,-18.69,-8.55,-1057.10,-0.24,-0.02,-4.15,1142,1142,1148,1148
33144,397,-143,15540,-15.70,87.79,-33.52,216.09,305.26,1387.54,-23.45,-11.52,-1090.45,-18.69,-8.55,-1057.10,0.18,0.14,-4.17,1142,1142,1148,1148
33150,313,-182,15647,-17.29,85.93,-34.05,216.09,305.26,1387.54,-23.05,-12.05,-1090.43,-18.69,-8.55,-1057.10,-0.08,0.58,-4.13,1142,1142,1148,1149
33158,366,-150,15585,-14.63,88.59,-33.25,214.51,305.26,1387.54,-23.20,-12.09,-1090.46,-18.69,-8.55,-1057.10,0.12,0.59,-4.14,1142,1142,1148,1149
33164,351,-148,15591,-15.43,87.79,-32.72,214.51,305.26,1387.54,-23.18,-12.10,-1090.48,-18.69,-8.55,-1057.10,0.16,0.57,-4.14,1142,1142,1148,1149
33185,356,-123,15601,-15.43,86.99,-33.52,214.51,305.26,1387.54,-23.22,-11.25,-1090.61,-18.62,-8.51,-1057.10,0.36,-0.18,-4.19,1142,1142,1148,1148
33191,398,-101,15611,-17.03,88.85,-35.12,214.51,305.26,1387.54,-23.49,-11.01,-1090.69,-18.62,-8.51,-1057.10,0.59,-0.30,-4.23,1142,1141,1149,1148
33199,344,-78,15604,-14.10,88.32,-34.32,214.51,305.26,1387.54,-23.30,-10.41,-1090.75,-18.62,-8.51,-1057.10,0.44,-0.68,-4.24,1142,1142,1149,1148
33205,365,-136,15649,-14.63,86.19,-32.99,214.51,305.26,1387.54,-23.42,-10.58,-1090.76,-18.62,-8.51,-1057.10,0.55,-0.43,-4.23,1142,1141,1149,1148
33212,383,-128,15536,-17.82,88.06,-32.19,214.51,305.26,1387.54,-23.68,-10.68,-1090.79,-18.62,-8.51,-1057.10,0.75,-0.26,-4.22,1142,1141,1149,1148
33218,350,-114,15586,-14.90,87.52,-35.12,214.51,305.26,1387.54,-23.60,-10.55,-1090.81,-18.62,-8.51,-1057.10,0.68,-0.29,-4.22,1142,1141,1149,1148
33241,333,-180,15633,-17.56,88.32,-57.20,214.51,305.26,1387.54,-22.67,-12.72,-1091.34,-18.56,-8.47,-1057.10,-0.11,1.71,-4.57,1144,1144,1149,1152
33248,384,-61,15510,-13.04,91.78,-72.09,214.51,305.26,1387.54,-22.79,-11.96,-1091.73,-18.56,-8.47,-1057.10,0.07,0.95,-4.81,1143,1143,1150,1152
33254,285,-56,15650,-17.56,90.45,-58.79,214.51,305.26,1387.54,-22.17,-11.21,-1091.95,-18.56,-8.47,-1057.10,-0.36,0.30,-4.90,1143,1144,1151,1151
33261,306,-152,15541,-14.37,90.98,-29.26,214.51,305.26,1387.54,-21.94,-11.53,-1091.88,-18.56,-8.47,-1057.10,-0.43,0.55,-4.74,1143,1144,1150,1151
33267,288,-80,15743,-23.41,87.79,8.25,214.51,305.26,1387.54,-21.53,-11.03,-1091.62,-18.56,-8.47,-1057.10,-0.64,0.14,-4.47,1143,1144,1150,1151
33274,384,-109,15531,-9.58,79.28,48.15,216.09,305.26,1387.54,-22.07,-10.95,-1091.08,-18.56,-8.47,-1057.10,-0.08,0.10,-4.01,1144,1144,1150,1150
33296,572,-86,15625,-18.89,71.03,86.73,223.97,306.88,1397.27,-24.58,-11.06,-1088.88,-18.49,-8.44,-1057.10,2.17,0.28,-2.25,1149,1146,1151,1151
33302,663,-159,15313,-1.33,73.16,57.73,223.97,306.88,1397.27,-25.32,-11.19,-1088.43,-18.49,-8.44,-1057.10,2.57,0.39,-2.10,1149,1146,1150,1151
33309,377,-155,15814,-30.33,82.74,23.41,227.13,306.88,1399.22,-25.52,-11.75,-1087.94,-18.49,-8.44,-1057.10,2.47,0.81,-1.95,1149,1146,1150,1151
33315,630,-467,15462,0.53,97.63,-18.62,227.13,306.88,1399.22,-25.76,-12.62,-1087.97,-18.49,-8.44,-1057.10,2.45,1.44,-2.19,1149,1146,1150,1152
33323,922,113,15467,-29.80,105.08,-68.10,231.86,306.88,1403.12,-26.32,-12.30,-1088.41,-18.49,-8.44,-1057.10,2.66,1.05,-2.75,1149,1145,1150,1152
33329,318,-254,15761,-10.11,110.94,-105.88,231.86,306.88,1403.12,-25.67,-13.30,-1088.80,-18.49,-8.44,-1057.10,1.95,1.76,-3.18,1148,1145,1150,1153
33350,69,-118,15627,-18.89,110.67,-124.50,231.86,306.88,1405.06,-19.24,-13.08,-1091.01,-18.43,-8.40,-1057.10,-3.75,1.06,-5.25,1142,1148,1152,1154
33357,240,-346,15682,-15.16,108.81,-105.08,231.86,306.88,1405.06,-18.96,-14.27,-1091.45,-18.43,-8.40,-1057.10,-3.48,1.92,-5.44,1142,1148,1152,1155
33363,39,252,15335,-20.48,96.30,-79.28,231.86,314.98,1410.91,-17.87,-13.10,-1091.91,-18.43,-8.40,-1057.10,-3.83,0.84,-5.62,1142,1148,1153,1154
33370,-633,-439,15872,-18.62,106.15,-51.34,231.86,314.98,1410.91,-16.05,-13.67,-1092.17,-18.43,-8.40,-1057.10,-4.77,1.25,-5.64,1141,1148,1152,1154
33377,-221,-95,15686,-12.24,77.68,-27.14,231.86,318.22,1410.91,-14.14,-13.58,-1092.20,-18.43,-8.40,-1057.10,-5.61,1.09,-5.45,1141,1149,1152,1154
33384,623,-128,15206,-9.31,88.85,-3.19,231.86,318.22,1410.91,-14.81,-13.65,-1092.12,-18.43,-8.40,-1057.10,-4.46,1.09,-5.24,1142,1148,1152,1154
33404,201,-59,15620,-15.43,51.61,-5.59,231.86,314.98,1416.75,-16.65,-12.23,-1091.09,-18.36,-8.36,-1057.10,-1.23,-0.26,-3.96,1145,1147,1152,1152
33412,521,-463,15774,-14.63,61.99,-36.18,231.86,314.98,1416.75,-17.19,-13.13,-1091.20,-18.36,-8.36,-1057.10,-0.69,0.53,-4.06,1145,1147,1152,1153
33419,907,-100,15411,-13.04,48.95,-50.81,231.86,311.74,1418.70,-18.26,-13.17,-1091.49,-18.36,-8.36,-1057.10,0.22,0.57,-4.29,1146,1146,1152,1153
33425,931,20,15759,-19.42,85.66,-59.06,231.86,311.74,1418.70,-18.95,-13.05,-1091.81,-18.36,-8.36,-1057.10,0.72,0.48,-4.51,1146,1145,1152,1153
33432,604,-294,15380,-16.76,88.06,-71.83,231.86,311.74,1418.70,-19.63,-13.66,-1092.20,-18.36,-8.36,-1057.10,1.16,0.96,-4.77,1146,1145,1152,1154
33438,886,-148,15665,-16.23,118.92,-79.01,231.86,311.74,1418.70,-20.14,-13.76,-1092.64,-18.36,-8.36,-1057.10,1.43,1.00,-5.04,1146,1144,1152,1154
33460,462,-34,15581,-18.89,102.95,-80.34,231.86,311.74,1420.64,-21.76,-12.58,-1093.92,-18.30,-8.32,-1057.10,2.21,-0.11,-5.74,1144,1141,1152,1151
33466,127,-583,15578,-18.36,87.26,-61.45,231.86,311.74,1420.64,-20.98,-13.89,-1094.18,-18.30,-8.32,-1057.10,1.39,0.98,-5.78,1144,1142,1151,1152
33473,230,16,15675,-14.63,75.55,-46.02,231.86,311.74,1420.64,-20.63,-12.76,-1094.26,-18.30,-8.32,-1057.10,0.96,0.06,-5.65,1144,1142,1151,1152
33480,99,-475,15539,-14.10,91.52,-28.73,231.86,311.74,1420.64,-19.74,-14.01,-1094.29,-18.30,-8.32,-1057.10,0.19,1.08,-5.52,1143,1143,1151,1152
33487,246,118,15640,-17.82,88.85,-12.77,231.86,313.36,1420.64,-19.42,-12.81,-1094.22,-18.30,-8.32,-1057.10,-0.07,0.09,-5.31,1143,1143,1151,1151
33494,314,-190,15539,-16.76,100.56,-0.53,231.86,313.36,1420.64,-19.74,-13.34,-1093.94,-18.30,-8.32,-1057.10,0.21,0.56,-4.99,1143,1143,1151,1151
33501,354,-156,15816,-18.89,90.98,3.46,230.28,313.36,1418.70,-20.30,-13.58,-1093.65,-18.30,-8.32,-1057.10,0.63,0.75,-4.68,1144,1143,1150,1151
33521,259,-199,15525,-15.43,77.95,-6.38,231.86,313.36,1418.70,-20.76,-15.73,-1092.53,-18.23,-8.28,-1057.10,0.85,2.45,-3.65,1145,1144,1148,1152
33528,416,136,15504,-12.77,74.76,-29.80,231.86,313.36,1418.70,-20.96,-14.77,-1092.64,-18.23,-8.28,-1057.10,0.93,1.51,-3.81,1145,1143,1149,1151
33536,331,-333,15656,-15.70,77.15,-38.84,233.44,313.36,1416.75,-21.17,-15.91,-1092.67,-18.23,-8.28,-1057.10,1.01,2.29,-3.90,1145,1143,1148,1152
33542,674,-279,15643,-19.69,86.46,-44.43,233.44,313.36,1416.75,-21.83,-16.27,-1092.85,-18.23,-8.28,-1057.10,1.43,2.40,-4.09,1145,1143,1148,1152
33549,623,-31,15712,-15.70,98.43,-52.14,231.86,313.36,1414.80,-22.40,-15.84,-1093.13,-18.23,-8.28,-1057.10,1.74,1.85,-4.34,1145,1142,1149,1152
33555,453,-105,15655,-22.08,101.62,-53.74,231.86,313.36,1414.80,-22.82,-15.54,-1093.32,-18.23,-8.28,-1057.10,1.91,1.50,-4.48,1145,1142,1149,1152
33576,241,-129,15541,-17.82,90.45,-50.55,231.86,313.36,1412.85,-20.49,-13.80,-1093.24,-18.17,-8.24,-1057.10,-0.58,-0.19,-4.35,1143,1144,1151,1150
33583,242,-30,15755,-10.11,83.80,-30.06,231.86,313.36,1412.85,-20.30,-12.93,-1093.15,-18.17,-8.24,-1057.10,-0.62,-0.75,-4.28,1143,1144,1151,1150
33590,169,-28,15544,-14.63,79.28,-17.03,230.28,313.36,1410.91,-19.47,-12.00,-1092.93,-18.17,-8.24,-1057.10,-1.14,-1.29,-4.12,1143,1145,1151,1149
33596,530,-333,15584,-19.42,79.54,-4.52,230.28,313.36,1410.91,-20.01,-12.76,-1092.84,-18.17,-8.24,-1057.10,-0.56,-0.48,-4.07,1144,1144,1151,1150
33603,867,-99,15368,-17.29,77.68,-2.13,231.86,313.36,1407.01,-20.86,-12.83,-1092.78,-18.17,-8.24,-1057.10,0.21,-0.28,-4.05,1144,1144,1150,1150
33609,385,-181,15711,-17.82,95.24,-4.26,231.86,313.36,1407.01,-21.31,-13.23,-1092.58,-18.17,-8.24,-1057.10,0.58,0.13,-3.93,1145,1144,1150,1150
33631,320,-90,15513,-14.90,87.52,-21.55,230.28,313.36,1407.01,-22.29,-12.07,-1092.10,-18.10,-8.20,-1057.10,1.29,-0.60,-3.69,1145,1143,1150,1149
33637,400,-176,16036,-19.95,85.93,-34.58,230.28,313.36,1407.01,-22.76,-12.49,-1092.09,-18.10,-8.20,-1057.10,1.55,-0.15,-3.74,1145,1143,1150,1150
33644,468,-122,15526,-16.23,89.65,-38.57,230.28,313.36,1407.01,-23.40,-12.52,-1092.18,-18.10,-8.20,-1057.10,1.91,-0.03,-3.87,1146,1143,1150,1150
33650,74,-350,15427,-17.82,92.58,-39.64,230.28,313.36,1407.01,-22.05,-13.51,-1092.28,-18.10,-8.20,-1057.10,0.71,0.81,-4.00,1145,1144,1150,1151
33657,577,-6,15600,-22.88,80.61,-48.15,230.28,313.36,1405.06,-22.74,-13.14,-1092.52,-18.10,-8.20,-1057.10,1.21,0.49,-4.21,1145,1143,1150,1151
33665,368,-9,15433,-16.76,88.59,-51.88,230.28,313.36,1405.06,-22.92,-12.41,-1092.67,-18.10,-8.20,-1057.10,1.27,-0.06,-4.34,1145,1143,1151,1150
33686,223,-144,15572,-15.16,87.52,-44.96,230.28,313.36,1405.06,-19.89,-13.14,-1092.27,-18.04,-8.16,-1057.10,-1.49,0.79,-3.98,1143,1145,1150,1151
33692,446,-119,15698,-14.37,87.26,-19.42,230.28,313.36,1405.06,-20.51,-13.14,-1092.23,-18.04,-8.16,-1057.10,-0.79,0.76,-3.98,1143,1145,1150,1151
33699,329,-250,15645,-19.69,93.91,-10.11,230.28,313.36,1403.12,-20.75,-14.07,-1092.02,-18.04,-8.16,-1057.10,-0.45,1.46,-3.85,1144,1145,1149,1151
33705,628,-101,15838,-23.41,79.01,-11.17,230.28,313.36,1403.12,-21.46,-14.05,-1092.00,-18.04,-8.16,-1057.10,0.19,1.35,-3.87,1144,1144,1149,1151
33713,399,44,15464,-14.63,82.47,-22.88,230.28,311.74,1403.12,-21.76,-13.16,-1092.01,-18.04,-8.16,-1057.10,0.46,0.57,-3.93,1144,1144,1150,1151
33719,458,-251,15635,-17.56,77.42,-35.38,230.28,311.74,1403.12,-22.34,-13.77,-1092.07,-18.04,-8.16,-1057.10,0.90,1.04,-4.01,1145,1143,1149,1151
33740,300,-102,15508,-14.90,92.58,-40.97,230.28,311.74,1403.12,-22.43,-12.38,-1091.88,-17.97,-8.12,-1057.10,0.82,-0.24,-3.93,1145,1143,1150,1150
33746,634,-212,15372,-20.22,92.58,-31.92,230.28,311.74,1403.12,-23.03,-12.75,-1091.97,-17.97,-8.12,-1057.10,1.25,0.14,-4.04,1145,1143,1150,1150
33754,221,-248,15860,-18.36,103.22,-31.92,230.28,311.74,1403.12,-21.98,-13.88,-1091.87,-17.97,-8.12,-1057.10,0.34,1.08,-3.97,1144,1144,1149,1151
33760,664,-180,15800,-19.95,86.73,-38.84,230.28,311.74,1403.12,-22.64,-14.06,-1092.01,-17.97,-8.12,-1057.10,0.87,1.17,-4.11,1145,1143,1149,1151
33767,101,-103,15554,-14.63,75.55,-55.07,230.28,311.74,1403.12,-21.00,-13.72,-1092.16,-17.97,-8.12,-1057.10,-0.45,0.84,-4.24,1144,1144,1150,1151
33773,195,-38,15556,-9.58,74.22,-54.54,230.28,311.74,1403.12,-20.40,-12.83,-1092.22,-17.97,-8.12,-1057.10,-0.81,0.13,-4.28,1143,1144,1150,1151
33796,374,-103,15516,-19.69,93.38,-26.07,230.28,311.74,1403.12,-22.13,-12.67,-1092.02,-17.91,-8.08,-1057.10,1.08,0.19,-4.09,1145,1143,1150,1150
33802,487,-49,15709,-10.91,97.37,-9.05,230.28,311.74,1403.12,-22.62,-12.37,-1091.94,-17.91,-8.08,-1057.10,1.39,0.00,-4.04,1145,1143,1150,1150
33809,422,-166,15613,-17.82,85.66,-26.07,230.28,311.74,1403.12,-23.23,-12.72,-1091.89,-17.91,-8.08,-1057.10,1.74,0.35,-4.02,1145,1143,1150,1150
33815,341,-393,15865,-12.24,76.09,-39.90,230.28,311.74,1403.12,-23.11,-13.90,-1091.97,-17.91,-8.08,-1057.10,1.51,1.29,-4.10,1145,1143,1149,1151
33822,60,71,15393,-11.97,67.04,-48.15,228.71,310.12,1403.12,-21.75,-12.94,-1092.20,-17.91,-8.08,-1057.10,0.33,0.46,-4.29,1144,1144,1150,1151
33828,630,-327,15554,-21.28,75.29,-42.83,228.71,310.12,1403.12,-22.39,-13.59,-1092.37,-17.91,-8.08,-1057.10,0.84,0.98,-4.41,1144,1143,1150,1151
33850,457,-80,15620,-15.96,95.77,-31.13,230.28,310.12,1403.12,-24.07,-12.75,-1092.49,-17.84,-8.05,-1057.10,2.08,0.17,-4.43,1145,1142,1150,1151
33856,200,36,15287,-19.95,108.01,-40.17,230.28,310.12,1403.12,-23.02,-11.83,-1092.58,-17.84,-8.05,-1057.10,1.10,-0.50,-4.48,1145,1143,1151,1150
33863,355,-105,15760,-16.49,86.99,-43.36,225.55,310.12,1403.12,-23.32,-11.66,-1092.59,-17.84,-8.05,-1057.10,1.27,-0.50,-4.46,1145,1143,1151,1150
33869,-20,-277,15624,-7.71,65.44,-48.42,225.55,310.12,1403.12,-21.84,-12.25,-1092.78,-17.84,-8.05,-1057.10,0.04,0.08,-4.58,1144,1144,1151,1151
33876,427,-168,15508,-19.15,75.02,-34.58,231.86,310.12,1403.12,-22.58,-12.67,-1092.79,-17.84,-8.05,-1057.10,0.68,0.47,-4.55,1144,1143,1150,1151
33883,820,-144,15615,-13.57,88.32,-25.54,231.86,310.12,1403.12,-23.26,-12.78,-1092.88,-17.84,-8.05,-1057.10,1.19,0.56,-4.58,1145,1143,1150,1151
33890,-177,46,15367,-17.82,92.31,-25.01,227.13,310.12,1403.12,-21.32,-12.35,-1092.99,-17.84,-8.05,-1057.10,-0.40,0.23,-4.62,1143,1144,1150,1151
33911,376,-154,15748,-14.63,90.72,-32.99,227.13,310.12,1405.06,-22.93,-13.17,-1092.90,-17.78,-8.01,-1057.10,1.28,1.03,-4.41,1145,1143,1150,1151
33917,758,-336,15745,-22.88,67.04,-32.99,227.13,310.12,1405.06,-23.66,-13.73,-1093.03,-17.78,-8.01,-1057.10,1.76,1.41,-4.50,1145,1142,1149,1152
33925,275,-105,15571,-7.45,91.78,-30.86,228.71,310.12,1405.06,-23.10,-13.11,-1092.88,-17.78,-8.01,-1057.10,1.17,0.83,-4.36,1145,1143,1150,1151
33931,806,-102,15246,-32.72,83.00,-38.57,228.71,310.12,1405.06,-23.81,-13.22,-1093.06,-17.78,-8.01,-1057.10,1.66,0.88,-4.49,1145,1142,1150,1151
33938,364,104,15567,-9.31,94.44,-39.90,231.86,310.12,1405.06,-23.67,-12.06,-1093.20,-17.78,-8.01,-1057.10,1.42,-0.06,-4.58,1145,1143,1151,1151
33944,-293,-407,15531,-14.10,83.80,-44.96,231.86,310.12,1405.06,-22.03,-12.73,-1093.41,-17.78,-8.01,-1057.10,0.05,0.53,-4.70,1144,1143,1150,1151
33966,433,-159,15656,-16.76,88.32,-32.46,230.28,311.74,1405.06,-23.93,-13.52,-1093.44,-17.71,-7.97,-1057.10,1.79,1.19,-4.58,1145,1142,1150,1152
33973,684,14,15646,-26.60,91.78,-24.21,230.28,311.74,1405.06,-24.56,-13.19,-1093.53,-17.71,-7.97,-1057.10,2.13,0.86,-4.62,1145,1142,1150,1151
33979,474,30,15488,-9.31,73.96,-32.99,230.28,311.74,1405.06,-24.95,-12.45,-1093.63,-17.71,-7.97,-1057.10,2.28,0.26,-4.66,1145,1142,1151,1151
33986,-58,-57,15416,-15.16,97.37,-44.96,230.28,311.74,1405.06,-22.92,-12.24,-1093.84,-17.71,-7.97,-1057.10,0.50,0.13,-4.79,1144,1143,1151,1151
33992,705,-385,15690,-23.94,79.28,-43.63,230.28,311.74,1405.06,-23.51,-12.99,-1094.03,-17.71,-7.97,-1057.10,0.97,0.76,-4.89,1144,1143,1150,1151
33999,218,-219,15898,-2.13,92.05,-31.39,230.28,311.74,1405.06,-22.36,-13.79,-1093.87,-17.71,-7.97,-1057.10,0.04,1.36,-4.70,1144,1143,1150,1152
34022,564,-141,15513,-16.76,86.99,-27.67,230.28,311.74,1405.06,-24.63,-14.00,-1094.07,-17.66,-7.93,-1057.10,2.12,1.25,-4.73,1145,1142,1150,1152
34028,-307,14,15415,-26.87,100.03,-50.55,230.28,311.74,1405.06,-22.84,-13.81,-1094.34,-17.66,-7.93,-1057.10,0.57,1.03,-4.90,1144,1143,1150,1152
34035,788,-220,15702,-13.83,86.73,-47.35,230.28,311.74,1405.06,-23.60,-14.06,-1094.59,-17.66,-7.93,-1057.10,1.17,1.18,-5.04,1144,1142,1150,1152
34041,236,104,15519,-3.46,88.06,-32.46,230.28,311.74,1405.06,-22.94,-12.91,-1094.68,-17.66,-7.93,-1057.10,0.60,0.23,-5.04,1144,1143,1151,1151
34049,215,11,15206,-24.47,100.03,-21.02,230.28,311.74,1405.06,-22.05,-11.91,-1094.59,-17.66,-7.93,-1057.10,-0.09,-0.49,-4.90,1143,1143,1151,1151
34055,540,-238,16320,-22.61,98.96,-15.70,230.28,311.74,1405.06,-22.55,-12.47,-1094.54,-17.66,-7.93,-1057.10,0.37,0.07,-4.81,1144,1143,1151,1151
34076,314,-205,15524,-15.70,82.20,-41.50,230.28,311.74,1405.06,-23.06,-14.95,-1094.37,-17.61,-7.89,-1057.10,0.88,2.28,-4.54,1144,1143,1149,1152
34082,243,-376,15767,-5.85,80.61,-34.58,230.28,311.74,1405.06,-22.48,-16.08,-1094.38,-17.61,-7.89,-1057.10,0.41,2.98,-4.54,1144,1143,1148,1153
34089,516,214,15263,-20.48,86.19,-18.62,230.28,311.74,1403.12,-22.66,-15.07,-1094.46,-17.61,-7.89,-1057.10,0.57,1.91,-4.59,1144,1143,1149,1152
34096,266,-470,16001,-22.08,95.77,-14.10,230.28,311.74,1403.12,-22.11,-16.40,-1094.39,-17.61,-7.89,-1057.10,0.15,2.81,-4.52,1144,1144,1148,1153
34103,616,116,15062,-18.09,86.19,-25.54,230.28,311.74,1403.12,-22.59,-15.66,-1094.51,-17.61,-7.89,-1057.10,0.58,1.98,-4.60,1144,1143,1149,1152
34109,121,-277,16349,-11.97,84.60,-44.96,230.28,311.74,1403.12,-21.18,-16.27,-1094.55,-17.61,-7.89,-1057.10,-0.52,2.32,-4.63,1143,1144,1149,1152
34130,448,-164,15435,-13.57,86.46,-38.04,227.13,310.12,1403.12,-23.24,-16.01,-1094.86,-17.56,-7.85,-1057.10,1.58,1.54,-4.82,1145,1142,1150,1152
34137,-80,-59,15642,-25.01,106.15,-20.48,227.13,310.12,1403.12,-21.46,-15.71,-1094.91,-17.56,-7.85,-1057.10,0.09,1.24,-4.82,1143,1143,1150,1152
34144,490,215,15486,-20.75,89.65,-31.92,225.55,311.74,1403.12,-21.56,-14.67,-1095.09,-17.56,-7.85,-1057.10,0.22,0.39,-4.92,1144,1143,1151,1151
34150,641,-156,15549,-17.29,87.79,-48.95,225.55,311.74,1403.12,-22.23,-14.72,-1095.32,-17.56,-7.85,-1057.10,0.77,0.48,-5.05,1144,1143,1151,1151
34157,-99,-470,16110,-1.60,79.28,-49.48,225.55,311.74,1403.12,-20.60,-15.58,-1095.56,-17.56,-7.85,-1057.10,-0.53,1.20,-5.18,1143,1144,1150,1152
34163,544,-131,15056,-23.41,75.55,-33.79,225.55,311.74,1403.12,-21.31,-15.54,-1095.68,-17.56,-7.85,-1057.10,0.13,1.13,-5.20,1143,1143,1150,1152
34185,288,-93,15578,-18.89,94.97,-22.88,225.55,311.74,1403.12,-20.81,-13.22,-1095.38,-17.51,-7.81,-1057.10,-0.13,-0.84,-4.72,1143,1144,1151,1150
34191,989,-62,15459,-10.11,85.93,-46.02,225.55,311.74,1403.12,-21.50,-13.14,-1095.63,-17.51,-7.81,-1057.10,0.47,-0.71,-4.89,1144,1143,1151,1150
34198,-206,-484,15927,-13.30,74.49,-46.82,225.55,310.12,1403.12,-19.90,-14.06,-1095.86,-17.51,-7.81,-1057.10,-0.78,0.19,-5.04,1143,1144,1151,1151
34204,750,304,15147,-26.07,78.48,-34.85,225.55,310.12,1403.12,-20.37,-13.43,-1096.05,-17.51,-7.81,-1057.10,-0.27,-0.23,-5.13,1143,1143,1151,1151
34211,976,-189,15422,-7.18,95.24,-22.61,223.97,310.12,1403.12,-21.10,-13.55,-1096.15,-17.51,-7.81,-1057.10,0.38,-0.01,-5.15,1143,1143,1151,1151
34217,-640,0,16096,-7.98,92.05,-16.23,223.97,310.12,1403.12,-19.30,-13.37,-1096.22,-17.51,-7.81,-1057.10,-1.01,-0.06,-5.14,1142,1144,1151,1151
34240,427,-212,15568,-19.15,86.99,-41.24,223.97,310.12,1403.12,-21.28,-14.85,-1096.56,-17.45,-7.77,-1057.10,1.14,1.46,-5.22,1144,1142,1150,1152
34246,145,-150,15798,-26.34,67.04,-36.71,223.97,310.12,1403.12,-20.05,-14.74,-1096.52,-17.45,-7.77,-1057.10,0.10,1.30,-5.13,1143,1143,1150,1152
34253,1099,-104,14897,-14.63,92.31,-26.60,223.97,311.74,1403.12,-20.79,-14.74,-1096.67,-17.45,-7.77,-1057.10,0.71,1.24,-5.19,1144,1143,1150,1152
34259,-344,-254,16257,-1.33,96.84,-20.75,223.97,311.74,1403.12,-18.96,-14.90,-1096.74,-17.45,-7.77,-1057.10,-0.75,1.31,-5.19,1143,1144,1150,1152
34267,184,41,15381,-29.00,88.59,-28.47,225.55,313.36,1403.12,-18.33,-13.79,-1096.76,-17.45,-7.77,-1057.10,-1.11,0.38,-5.14,1142,1144,1151,1151
34273,1200,-360,15707,-16.23,94.44,-42.57,225.55,313.36,1403.12,-18.96,-14.13,-1096.99,-17.45,-7.77,-1057.10,-0.47,0.69,-5.27,1143,1143,1151,1152
34280,-66,-164,15657,-10.91,89.12,-40.17,225.55,311.74,1403.12,-17.00,-14.25,-1097.08,-17.45,-7.77,-1057.10,-1.89,0.79,-5.28,1142,1145,1151,1152
34301,486,-58,15413,-15.96,82.20,-27.93,225.55,313.36,1403.12,-19.21,-13.51,-1097.28,-17.40,-7.73,-1057.10,0.69,0.19,-5.23,1144,1143,1151,1151
34308,-228,-294,15768,-25.54,80.08,-37.24,225.55,313.36,1403.12,-17.53,-14.08,-1097.41,-17.40,-7.73,-1057.10,-0.68,0.70,-5.28,1143,1144,1151,1152
34315,392,-221,15677,-6.12,90.72,-41.24,225.55,313.36,1403.12,-18.12,-14.46,-1097.50,-17.40,-7.73,-1057.10,-0.13,1.00,-5.29,1143,1143,1150,1152
34321,436,-7,15665,-28.20,89.39,-38.84,225.55,313.36,1403.12,-18.59,-14.05,-1097.62,-17.40,-7.73,-1057.10,0.27,0.66,-5.33,1143,1143,1151,1152
34328,225,93,15996,-18.36,81.94,-34.32,225.55,313.36,1403.12,-18.27,-12.93,-1097.70,-17.40,-7.73,-1057.10,-0.00,-0.20,-5.32,1143,1143,1151,1151
34334,224,-264,14678,-8.78,78.21,-31.13,225.55,313.36,1403.12,-18.26,-13.92,-1097.64,-17.40,-7.73,-1057.10,0.01,0.67,-5.22,1143,1143,1151,1152
34356,427,-182,15631,-16.49,88.06,-38.31,228.71,311.74,1403.12,-20.40,-14.85,-1097.86,-17.35,-7.69,-1057.10,1.79,1.46,-5.25,1145,1143,1151,1153
34362,534,263,15682,-31.66,95.51,-30.33,228.71,311.74,1403.12,-20.56,-14.08,-1097.99,-17.35,-7.69,-1057.10,1.74,0.79,-5.30,1145,1143,1152,1153
34369,537,-98,15500,-9.05,96.84,-26.87,228.71,311.74,1405.06,-21.22,-13.93,-1098.05,-17.35,-7.69,-1057.10,2.06,0.67,-5.29,1146,1142,1152,1153
34375,-5,-546,15811,-13.30,80.34,-25.01,228.71,311.74,1405.06,-20.12,-15.08,-1098.09,-17.35,-7.69,-1057.10,1.00,1.57,-5.27,1145,1143,1151,1153
34382,331,-195,15788,-21.28,85.66,-38.04,228.71,311.74,1405.06,-20.63,-15.44,-1098.04,-17.35,-7.69,-1057.10,1.31,1.75,-5.19,1145,1143,1151,1153
34388,612,-311,15295,-6.38,90.72,-45.49,228.71,311.74,1405.06,-21.22,-15.86,-1098.23,-17.35,-7.69,-1057.10,1.65,1.97,-5.30,1145,1143,1151,1154
34410,206,-50,15608,-17.29,93.64,-27.14,228.71,311.74,1405.06,-18.94,-12.79,-1097.99,-17.30,-7.66,-1057.10,-0.70,-0.94,-4.95,1144,1145,1153,1151
34416,875,181,15311,-18.89,82.47,-29.26,228.71,311.74,1405.06,-19.57,-12.42,-1098.12,-17.30,-7.66,-1057.10,-0.10,-1.03,-5.05,1144,1144,1153,1151
34423,489,-500,15915,-20.75,81.94,-43.90,228.71,311.74,1405.06,-19.88,-13.64,-1098.30,-17.30,-7.66,-1057.10,0.19,0.15,-5.17,1144,1144,1152,1152
34429,-118,271,15773,0.80,83.53,-51.88,228.71,311.74,1405.06,-18.63,-12.64,-1098.56,-17.30,-7.66,-1057.10,-0.76,-0.56,-5.34,1143,1145,1153,1152
34437,422,-336,15559,-40.70,91.25,-42.03,228.71,311.74,1405.06,-19.05,-13.77,-1098.68,-17.30,-7.66,-1057.10,-0.30,0.49,-5.38,1144,1144,1152,1153
34443,996,-26,15138,-9.58,80.08,-20.22,228.71,311.74,1405.06,-19.78,-13.67,-1098.75,-17.30,-7.66,-1057.10,0.33,0.44,-5.39,1144,1144,1152,1153
34465,374,-134,15781,-15.96,89.65,-29.80,228.71,311.74,1403.12,-21.67,-13.83,-1098.61,-17.25,-7.62,-1057.10,1.85,0.69,-5.11,1147,1144,1152,1154
34471,-326,-504,15426,-5.85,99.50,-56.93,228.71,311.74,1403.12,-20.02,-14.53,-1098.89,-17.25,-7.62,-1057.10,0.41,1.24,-5.31,1145,1145,1152,1154
34479,194,190,15160,-31.92,60.92,-36.71,228.71,311.74,1403.12,-19.65,-13.40,-1099.03,-17.25,-7.62,-1057.10,0.11,0.31,-5.37,1145,1145,1153,1153
34485,907,75,15988,-4.52,103.49,-23.41,228.71,311.74,1403.12,-20.20,-13.07,-1099.12,-17.25,-7.62,-1057.10,0.56,0.10,-5.40,1145,1145,1153,1153
34492,205,-398,15680,-15.96,90.72,-20.22,228.71,311.74,1405.06,-19.65,-14.49,-1099.05,-17.25,-7.62,-1057.10,0.10,1.29,-5.29,1145,1145,1152,1154
34498,-441,-336,15311,-20.22,78.48,-26.34,228.71,311.74,1405.06,-17.98,-14.97,-1099.14,-17.25,-7.62,-1057.10,-1.17,1.60,-5.33,1144,1146,1152,1154
34520,506,-161,15572,-16.76,83.27,-45.23,228.71,311.74,1403.12,-20.31,-15.35,-1099.64,-17.21,-7.58,-1057.10,1.26,1.60,-5.61,1146,1144,1152,1155
34527,79,231,15736,-7.98,93.91,-21.02,227.13,311.74,1403.12,-19.25,-14.08,-1099.70,-17.21,-7.58,-1057.10,0.31,0.52,-5.59,1145,1145,1153,1154
34533,1086,-408,15311,-30.59,88.32,-16.23,227.13,311.74,1403.12,-19.90,-14.62,-1099.75,-17.21,-7.58,-1057.10,0.81,0.97,-5.57,1145,1144,1153,1154
34540,467,-387,15308,-3.99,91.52,-34.32,227.13,310.12,1403.12,-20.31,-15.50,-1099.85,-17.21,-7.58,-1057.10,1.06,1.64,-5.58,1146,1144,1152,1155
34546,-428,611,16407,-16.23,85.93,-51.61,227.13,310.12,1403.12,-19.00,-14.62,-1100.15,-17.21,-7.58,-1057.10,-0.04,0.87,-5.76,1145,1145,1153,1154
34553,998,-239,14939,-33.25,85.66,-45.23,227.13,311.74,1403.12,-19.80,-15.00,-1100.41,-17.21,-7.58,-1057.10,0.61,1.16,-5.88,1145,1144,1153,1155
34575,138,-200,15558,-13.30,89.12,-24.74,227.13,310.12,1403.12,-16.13,-16.65,-1099.46,-17.17,-7.54,-1057.10,-2.50,2.38,-4.80,1143,1147,1151,1155
34581,1275,19,16808,-21.81,93.64,-39.90,227.13,310.12,1403.12,-16.77,-16.55,-1099.67,-17.17,-7.54,-1057.10,-1.71,2.15,-5.00,1144,1147,1151,1155
34588,110,-46,15142,-10.91,73.96,-48.95,227.13,311.74,1403.12,-16.13,-15.49,-1099.69,-17.17,-7.54,-1057.10,-1.97,1.17,-5.03,1144,1147,1152,1154
34594,170,-454,15310,-19.95,86.73,-38.04,227.13,311.74,1403.12,-15.82,-16.79,-1099.75,-17.17,-7.54,-1057.10,-1.98,2.16,-5.09,1144,1147,1151,1155
34601,413,27,16029,-17.03,96.57,-29.53,225.55,310.12,1403.12,-16.23,-16.11,-1099.82,-17.17,-7.54,-1057.10,-1.40,1.48,-5.15,1144,1146,1152,1154
34608,360,-494,14974,-1.06,79.81,-21.28,225.55,310.12,1403.12,-16.46,-17.08,-1099.82,-17.17,-7.54,-1057.10,-1.06,2.17,-5.15,1144,1146,1151,1155
34629,477,-74,15694,-22.08,86.99,-39.64,225.55,310.12,1403.12,-18.50,-16.19,-1100.25,-17.13,-7.50,-1057.10,1.01,1.02,-5.49,1146,1144,1153,1154
34635,111,-294,15366,-18.89,90.45,-32.99,225.55,310.12,1403.12,-17.51,-17.20,-1100.15,-17.13,-7.50,-1057.10,0.13,1.81,-5.37,1145,1145,1152,1155
34642,232,266,15693,-5.59,89.12,-25.81,227.13,310.12,1403.12,-17.14,-15.87,-1100.25,-17.13,-7.50,-1057.10,-0.16,0.68,-5.42,1145,1145,1153,1154
34650,301,-564,15640,-11.44,92.05,-24.47,227.13,310.12,1403.12,-17.05,-17.05,-1100.27,-17.13,-7.50,-1057.10,-0.21,1.64,-5.40,1145,1145,1152,1155
34656,294,-77,15620,-23.68,90.45,-30.33,227.13,311.74,1403.12,-17.43,-16.47,-1100.24,-17.13,-7.50,-1057.10,0.11,1.12,-5.35,1145,1145,1152,1154
34663,495,37,15443,-24.21,97.90,-44.43,227.13,311.74,1403.12,-17.85,-15.98,-1100.42,-17.13,-7.50,-1057.10,0.43,0.73,-5.46,1145,1145,1153,1154
34684,315,-34,15677,-11.97,80.61,-35.65,227.13,310.12,1403.12,-19.15,-13.66,-1100.51,-17.09,-7.46,-1057.10,1.33,-1.03,-5.42,1146,1144,1154,1152
34691,518,-434,15570,-14.37,85.40,-29.26,227.13,310.12,1403.12,-19.56,-14.55,-1100.57,-17.09,-7.46,-1057.10,1.51,-0.12,-5.44,1146,1144,1153,1153
34698,764,-400,15412,-24.21,84.07,-35.38,227.13,310.12,1403.12,-20.22,-15.22,-1100.72,-17.09,-7.46,-1057.10,1.86,0.53,-5.53,1146,1143,1153,1154
34704,171,13,15307,-22.88,95.77,-40.70,227.13,310.12,1403.12,-19.50,-14.23,-1100.78,-17.09,-7.46,-1057.10,1.11,-0.18,-5.54,1146,1144,1153,1153
34711,524,-322,15861,-20.22,78.21,-35.38,227.13,310.12,1403.12,-20.15,-14.95,-1100.88,-17.09,-7.46,-1057.10,1.51,0.51,-5.57,1146,1144,1153,1154
34717,634,258,15525,-3.99,83.00,-27.40,227.13,310.12,1403.12,-20.53,-14.12,-1100.99,-17.09,-7.46,-1057.10,1.66,-0.08,-5.62,1146,1143,1153,1153
34724,-93,-334,15515,-4.79,98.96,-28.73,227.13,311.74,1403.12,-18.67,-14.88,-1101.04,-17.09,-7.46,-1057.10,0.03,0.63,-5.61,1145,1145,1153,1154
34746,416,-139,15661,-21.02,90.19,-36.71,228.71,311.74,1403.12,-20.69,-15.04,-1101.20,-17.05,-7.42,-1057.10,1.74,0.87,-5.60,1146,1143,1153,1154
34752,462,67,15799,-22.88,75.55,-40.44,228.71,311.74,1403.12,-21.12,-14.36,-1101.34,-17.05,-7.42,-1057.10,1.91,0.35,-5.67,1146,1143,1153,1154
34759,538,-85,15496,-5.59,83.00,-32.72,228.71,311.74,1403.12,-21.87,-14.12,-1101.44,-17.05,-7.42,-1057.10,2.29,0.23,-5.69,1146,1143,1153,1154
34765,-229,14,15603,-1.86,96.30,-34.32,228.71,311.74,1403.12,-20.12,-13.69,-1101.57,-17.05,-7.42,-1057.10,0.72,-0.02,-5.75,1145,1144,1154,1154
34772,617,-726,16112,-32.19,85.40,-35.12,228.71,311.74,1403.12,-20.35,-15.06,-1101.72,-17.05,-7.42,-1057.10,0.85,1.15,-5.81,1145,1144,1153,1154
34779,564,-128,14762,-17.56,92.05,-35.38,228.71,311.74,1403.12,-20.98,-15.07,-1101.83,-17.05,-7.42,-1057.10,1.28,1.13,-5.84,1146,1144,1153,1154
34800,205,-11,15651,-15.70,85.40,-31.92,230.28,311.74,1403.12,-19.30,-11.73,-1101.64,-17.01,-7.38,-1057.10,-0.44,-1.68,-5.47,1145,1145,1155,1152
34806,658,-300,15591,-12.77,88.85,-27.67,230.28,311.74,1403.12,-19.88,-12.25,-1101.71,-17.01,-7.38,-1057.10,0.10,-1.00,-5.51,1145,1145,1154,1153
34813,547,45,15665,-25.01,87.52,-28.20,231.86,311.74,1403.12,-20.56,-11.91,-1101.77,-17.01,-7.38,-1057.10,0.66,-1.03,-5.53,1145,1144,1154,1153
34821,479,-406,15417,-22.08,100.56,-26.87,231.86,311.74,1403.12,-20.80,-12.90,-1101.80,-17.01,-7.38,-1057.10,0.82,-0.07,-5.53,1145,1144,1153,1153
34827,416,207,15646,-16.49,96.84,-28.73,230.28,311.74,1405.06,-20.89,-11.88,-1101.89,-17.01,-7.38,-1057.10,0.84,-0.76,-5.58,1145,1144,1154,1153
34834,308,-283,15821,-11.44,78.48,-36.18,230.28,311.74,1405.06,-21.03,-12.87,-1101.86,-17.01,-7.38,-1057.10,0.90,0.17,-5.54,1146,1144,1153,1153
34855,249,-174,15575,-17.56,86.99,-39.90,230.28,311.74,1405.06,-21.12,-14.91,-1101.25,-16.96,-7.34,-1057.10,0.80,2.04,-4.97,1146,1145,1151,1154
34862,1241,186,15176,-12.24,91.52,-33.25,230.28,311.74,1405.06,-21.73,-14.59,-1101.43,-16.96,-7.34,-1057.10,1.23,1.65,-5.15,1146,1144,1152,1154
34869,-526,-102,16007,-18.62,92.05,-32.99,231.86,311.74,1403.12,-19.68,-14.61,-1101.59,-16.96,-7.34,-1057.10,-0.45,1.56,-5.30,1145,1145,1152,1154
34875,777,3,15432,-14.90,78.21,-33.79,231.86,311.74,1403.12,-20.40,-14.41,-1101.73,-16.96,-7.34,-1057.10,0.20,1.32,-5.41,1145,1145,1152,1154
34882,579,-406,15493,-3.99,88.32,-38.04,230.28,311.74,1403.12,-20.93,-15.18,-1101.87,-16.96,-7.34,-1057.10,0.64,1.85,-5.51,1145,1144,1152,1155
34888,89,-369,15609,-23.41,86.73,-37.24,230.28,311.74,1403.12,-19.84,-16.36,-1101.88,-16.96,-7.34,-1057.10,-0.23,2.64,-5.50,1145,1145,1151,1155
34910,372,28,15625,-21.55,89.92,-25.54,231.86,310.12,1403.12,-20.81,-13.89,-1101.88,-16.91,-7.31,-1057.10,0.82,-0.05,-5.45,1146,1144,1153,1153
34916,80,-418,15368,7.98,85.40,-36.98,231.86,310.12,1403.12,-19.89,-14.96,-1101.92,-16.91,-7.31,-1057.10,0.07,0.88,-5.47,1145,1145,1153,1154
34923,445,-414,15839,-26.07,83.80,-35.91,230.28,311.74,1403.12,-20.29,-16.08,-1102.00,-16.91,-7.31,-1057.10,0.42,1.76,-5.52,1145,1145,1152,1155
34929,1218,-227,15039,-19.42,85.13,-35.12,230.28,311.74,1403.12,-21.01,-16.26,-1102.18,-16.91,-7.31,-1057.10,0.97,1.82,-5.64,1146,1144,1152,1155
34937,304,176,15550,-19.42,91.78,-31.13,230.28,311.74,1403.12,-20.74,-15.05,-1102.30,-16.91,-7.31,-1057.10,0.69,0.77,-5.70,1145,1144,1153,1154
34944,-356,-92,16128,-18.89,90.19,-28.73,230.28,311.74,1403.12,-18.96,-15.00,-1102.39,-16.91,-7.31,-1057.10,-0.72,0.75,-5.74,1144,1145,1153,1154
34964,515,-220,15522,-15.16,86.46,-38.31,230.28,311.74,1403.12,-21.13,-16.03,-1102.72,-16.86,-7.27,-1057.10,1.45,1.66,-5.87,1146,1143,1152,1155
34970,665,-4,15624,-14.10,91.52,-42.83,230.28,311.74,1403.12,-21.71,-15.68,-1102.90,-16.86,-7.27,-1057.10,1.78,1.31,-5.97,1146,1143,1153,1155
34977,57,-127,15554,-27.14,99.76,-35.91,230.28,311.74,1405.06,-19.83,-15.51,-1102.88,-16.86,-7.27,-1057.10,0.15,1.13,-5.88,1145,1144,1153,1154
34984,-37,7,15724,-12.77,82.47,-34.05,230.28,311.74,1405.06,-18.38,-14.82,-1102.92,-16.86,-7.27,-1057.10,-0.94,0.58,-5.87,1144,1145,1153,1154
34991,569,-114,15722,1.06,93.11,-32.99,230.28,311.74,1405.06,-19.10,-14.69,-1103.02,-16.86,-7.27,-1057.10,-0.22,0.53,-5.89,1144,1145,1153,1154
34998,202,-235,15165,-22.08,78.21,-32.19,230.28,311.74,1405.06,-19.07,-15.61,-1102.83,-16.86,-7.27,-1057.10,-0.19,1.29,-5.69,1145,1145,1152,1154
35019,518,-97,15634,-22.08,89.65,-32.72,230.28,311.74,1405.06,-21.25,-15.29,-1103.08,-16.80,-7.23,-1057.10,1.78,0.91,-5.80,1162,1159,1169,1170
35025,-417,-347,15941,9.31,89.65,-28.20,230.28,311.74,1405.06,-19.50,-15.57,-1103.17,-16.80,-7.23,-1057.10,0.27,1.13,-5.84,1161,1160,1169,1170
35033,414,-20,15416,-20.22,94.97,-32.19,230.28,311.74,1405.06,-19.99,-15.05,-1103.22,-16.80,-7.23,-1057.10,0.66,0.70,-5.84,1161,1160,1169,1170
35039,1300,-250,15293,-17.82,75.02,-34.85,230.28,311.74,1405.06,-20.76,-15.26,-1103.40,-16.80,-7.23,-1057.10,1.23,0.90,-5.94,1161,1159,1169,1170
35046,256,-122,15707,-13.83,81.67,-34.85,230.28,311.74,1405.06,-20.90,-14.86,-1103.19,-16.80,-7.23,-1057.10,1.23,0.60,-5.72,1161,1160,1169,1170
35052,89,-59,15339,-23.68,97.10,-39.64,230.28,311.74,1405.06,-19.55,-14.29,-1103.15,-16.80,-7.23,-1057.10,0.09,0.19,-5.67,1161,1161,1169,1169
35074,209,-193,15718,-14.63,88.59,-31.66,230.28,310.12,1405.06,-19.35,-16.33,-1102.21,-16.75,-7.19,-1057.10,0.03,2.13,-4.84,1163,1163,1169,1172
35081,583,-23,15469,-23.68,89.39,-30.86,231.86,310.12,1405.06,-20.03,-16.04,-1102.31,-16.75,-7.19,-1057.10,0.60,1.76,-5.00,1164,1163,1169,1172
35087,1241,62,15553,-12.50,81.41,-28.47,231.86,310.12,1405.06,-20.75,-15.85,-1102.45,-16.75,-7.19,-1057.10,1.13,1.52,-5.17,1164,1162,1170,1172
35094,169,18,15186,-23.94,93.38,-34.32,231.86,311.74,1408.96,-19.99,-14.74,-1102.45,-16.75,-7.19,-1057.10,0.45,0.59,-5.20,1163,1163,1170,1171
35100,-852,-213,16175,-2.13,90.72,-39.11,231.86,311.74,1408.96,-18.18,-14.82,-1102.64,-16.75,-7.19,-1057.10,-0.96,0.69,-5.38,1162,1164,1171,1172
35107,281,-312,15437,-5.59,92.58,-34.32,231.86,310.12,1408.96,-18.40,-15.82,-1102.60,-16.75,-7.19,-1057.10,-0.63,1.50,-5.36,1162,1163,1170,1172
35113,1724,-314,15310,-40.97,85.13,-32.19,231.86,310.12,1408.96,-19.11,-16.20,-1102.77,-16.75,-7.19,-1057.10,0.02,1.73,-5.51,1163,1163,1170,1172
35135,-40,-62,15759,-11.97,86.73,-38.57,231.86,310.12,1408.96,-13.86,-14.48,-1102.82,-16.71,-7.15,-1057.10,-4.12,0.07,-5.53,1158,1165,1170,1170
35141,1655,-162,15571,-7.71,81.67,-35.12,231.86,310.12,1408.96,-14.60,-14.56,-1103.00,-16.71,-7.15,-1057.10,-3.08,0.23,-5.67,1159,1164,1170,1170
35148,349,-378,15131,-25.81,85.93,-27.67,231.86,310.12,1410.91,-15.04,-15.63,-1103.00,-16.71,-7.15,-1057.10,-2.34,1.15,-5.65,1160,1163,1169,1171
35154,-531,-225,16094,-31.66,88.32,-32.19,231.86,310.12,1410.91,-13.26,-15.97,-1103.09,-16.71,-7.15,-1057.10,-3.45,1.40,-5.70,1159,1164,1169,1171
35162,849,-174,15551,-5.32,79.01,-41.77,235.02,310.12,1410.91,-14.09,-16.07,-1103.29,-16.71,-7.15,-1057.10,-2.38,1.43,-5.83,1160,1163,1169,1172
35168,731,-69,15298,-17.82,80.34,-40.97,235.02,310.12,1410.91,-14.84,-16.05,-1103.45,-16.71,-7.15,-1057.10,-1.53,1.37,-5.92,1160,1163,1169,1172
35189,237,-153,15594,-22.08,89.12,-29.26,235.02,310.12,1410.91,-16.68,-16.66,-1102.94,-16.66,-7.11,-1057.10,0.51,1.74,-5.35,1162,1161,1169,1171
35195,829,-6,15749,-0.53,83.80,-40.44,235.02,310.12,1410.91,-17.37,-16.40,-1103.11,-16.66,-7.11,-1057.10,0.98,1.46,-5.50,1162,1161,1169,1171
35203,495,53,15386,-16.23,89.92,-39.64,238.17,310.12,1410.91,-17.97,-15.89,-1103.24,-16.66,-7.11,-1057.10,1.32,1.02,-5.61,1163,1161,1169,1171
35209,-219,12,15800,-3.99,85.13,-34.05,238.17,310.12,1410.91,-16.36,-15.37,-1103.27,-16.66,-7.11,-1057.10,-0.07,0.62,-5.62,1162,1162,1170,1171
35216,255,-500,15423,-6.92,105.88,-22.88,235.02,310.12,1412.85,-16.22,-16.65,-1103.23,-16.66,-7.11,-1057.10,-0.18,1.67,-5.58,1161,1162,1169,1171
35222,670,-292,15855,-46.82,89.65,-22.88,235.02,310.12,1412.85,-16.87,-17.22,-1103.27,-16.66,-7.11,-1057.10,0.34,2.04,-5.60,1162,1161,1169,1172
35245,341,56,15490,-9.84,83.53,-43.10,233.44,310.12,1410.91,-18.10,-14.52,-1103.64,-16.61,-7.07,-1057.10,1.20,-0.51,-5.88,1163,1161,1172,1171
35251,40,-977,15733,-17.29,94.71,-23.68,233.44,310.12,1410.91,-17.39,-15.85,-1103.69,-16.61,-7.07,-1057.10,0.53,0.70,-5.88,1163,1162,1171,1172
35258,707,-207,15708,-32.99,92.85,-23.94,233.44,313.36,1412.85,-18.13,-16.20,-1103.75,-16.61,-7.07,-1057.10,1.04,1.02,-5.89,1163,1162,1171,1172
35264,703,551,15410,-12.24,72.36,-41.77,233.44,313.36,1412.85,-18.46,-15.30,-1103.97,-16.61,-7.07,-1057.10,1.19,0.33,-6.02,1163,1161,1171,1172
35271,-71,34,15271,-18.62,76.09,-48.15,233.44,313.36,1412.85,-16.93,-14.52,-1104.10,-16.61,-7.07,-1057.10,-0.14,-0.18,-6.07,1162,1162,1172,1171
35277,192,-313,15492,3.99,92.31,-38.31,233.44,313.36,1412.85,-16.87,-15.50,-1104.04,-16.61,-7.07,-1057.10,-0.16,0.71,-5.97,1162,1162,1171,1172
35299,414,-165,15725,-25.27,87.79,-23.68,235.02,313.36,1412.85,-19.05,-16.25,-1103.88,-16.56,-7.03,-1057.10,1.69,1.45,-5.69,1171,1168,1177,1179
35305,483,9,15518,-3.72,76.88,-49.48,235.02,313.36,1412.85,-19.65,-15.72,-1104.05,-16.56,-7.03,-1057.10,1.98,0.99,-5.81,1171,1168,1178,1179
35312,93,-68,15958,1.06,84.86,-41.77,235.02,313.36,1412.85,-18.46,-14.82,-1103.91,-16.56,-7.03,-1057.10,0.83,0.30,-5.68,1170,1169,1178,1178
35318,601,-528,15306,-21.81,90.98,-19.15,235.02,313.36,1412.85,-18.85,-15.75,-1103.92,-16.56,-7.03,-1057.10,1.06,1.11,-5.68,1170,1169,1177,1179
35325,698,-250,15293,-26.34,93.64,-19.95,235.02,313.36,1412.85,-19.58,-16.17,-1103.95,-16.56,-7.03,-1057.10,1.51,1.43,-5.69,1171,1168,1177,1179
35332,173,204,15800,-25.54,82.74,-39.11,235.02,313.36,1412.85,-19.12,-15.12,-1104.06,-16.56,-7.03,-1057.10,1.01,0.57,-5.77,1170,1169,1178,1179
35353,376,-275,15550,-9.84,86.19,-39.90,235.02,313.36,1414.80,-20.79,-17.22,-1104.16,-16.50,-6.99,-1057.10,2.07,2.45,-5.79,1174,1171,1179,1183
35359,240,-297,15614,-32.46,94.71,-21.81,235.02,313.36,1414.80,-20.66,-18.26,-1103.93,-16.50,-6.99,-1057.10,1.77,3.10,-5.60,1174,1171,1179,1184
35366,151,556,16128,-15.96,80.61,-39.37,235.02,313.36,1414.80,-20.02,-16.95,-1104.17,-16.50,-6.99,-1057.10,1.09,1.83,-5.79,1173,1172,1180,1183
35373,300,142,14976,-7.18,71.56,-50.55,235.02,313.36,1414.80,-20.07,-15.88,-1104.36,-16.50,-6.99,-1057.10,1.05,0.92,-5.91,1173,1171,1181,1182
35380,482,-671,15893,-2.93,93.64,-32.99,235.02,313.36,1416.75,-20.15,-17.09,-1104.47,-16.50,-6.99,-1057.10,1.02,1.88,-5.96,1173,1171,1180,1183
35387,469,-419,15062,-18.09,88.06,-9.31,235.02,313.36,1416.75,-20.56,-17.97,-1104.38,-16.50,-6.99,-1057.10,1.26,2.48,-5.86,1173,1171,1179,1183
35407,352,86,15777,-15.16,82.74,-33.52,235.02,313.36,1418.70,-20.88,-14.74,-1104.64,-16.45,-6.95,-1057.10,1.19,-0.64,-6.00,1173,1171,1182,1181
35414,87,-181,15718,-4.26,100.03,-30.59,235.02,313.36,1418.70,-19.42,-15.06,-1104.41,-16.45,-6.95,-1057.10,-0.02,-0.19,-5.78,1172,1172,1181,1181
35422,613,-522,15373,-40.97,82.74,-18.89,235.02,313.36,1418.70,-19.94,-16.24,-1104.42,-16.45,-6.95,-1057.10,0.43,0.90,-5.77,1173,1172,1181,1182
35428,345,-334,15640,-18.62,86.46,-34.85,235.02,313.36,1418.70,-20.26,-17.12,-1104.41,-16.45,-6.95,-1057.10,0.68,1.61,-5.75,1173,1172,1180,1182
35435,224,419,15331,-15.16,82.74,-50.01,239.75,313.36,1418.70,-19.85,-15.83,-1104.68,-16.45,-6.95,-1057.10,0.33,0.55,-5.95,1172,1172,1181,1182
35441,443,35,16367,15.43,88.85,-50.81,239.75,313.36,1418.70,-20.30,-15.07,-1104.82,-16.45,-6.95,-1057.10,0.69,0.02,-6.03,1173,1172,1181,1181
35463,262,-225,15304,-25.01,93.64,-35.12,236.59,313.36,1418.70,-21.05,-17.73,-1104.28,-16.40,-6.92,-1057.10,1.20,2.60,-5.46,1174,1172,1179,1183
35470,219,61,15902,2.93,74.49,-47.35,236.59,313.36,1418.70,-20.69,-16.39,-1104.42,-16.40,-6.92,-1057.10,0.83,1.37,-5.59,1173,1172,1180,1182
35476,1099,-320,15733,-2.93,85.66,-29.00,236.59,313.36,1418.70,-21.38,-16.60,-1104.54,-16.40,-6.92,-1057.10,1.33,1.51,-5.70,1173,1171,1180,1182
35483,434,-329,15071,-28.47,89.39,-20.75,239.75,313.36,1420.64,-21.91,-17.53,-1104.47,-16.40,-6.92,-1057.10,1.63,2.18,-5.64,1174,1171,1179,1183
35489,-11,-256,15482,-31.66,78.48,-28.20,239.75,313.36,1420.64,-20.35,-18.10,-1104.38,-16.40,-6.92,-1057.10,0.31,2.51,-5.58,1173,1172,1179,1183
35496,79,345,15891,-17.56,87.79,-39.90,239.75,313.36,1420.64,-19.53,-16.83,-1104.57,-16.40,-6.92,-1057.10,-0.31,1.36,-5.74,1172,1173,1180,1182
35503,652,23,15747,15.16,80.87,-35.38,239.75,313.36,1420.64,-20.18,-16.30,-1104.69,-16.40,-6.92,-1057.10,0.28,0.92,-5.82,1173,1172,1181,1182
35524,362,-246,15592,-27.67,98.17,-29.53,239.75,313.36,1420.64,-21.70,-18.32,-1104.42,-16.36,-6.88,-1057.10,1.59,2.65,-5.56,1174,1171,1179,1183
35530,316,262,15953,6.38,84.60,-42.83,239.75,313.36,1420.64,-21.49,-17.06,-1104.60,-16.36,-6.88,-1057.10,1.31,1.52,-5.71,1173,1171,1180,1182
35537,608,-162,15709,-16.23,80.87,-30.86,239.75,313.36,1420.64,-22.30,-17.12,-1104.66,-16.36,-6.88,-1057.10,1.84,1.52,-5.76,1174,1171,1180,1182
35544,828,-696,15250,-5.05,103.75,-27.40,239.75,313.36,1420.64,-22.62,-17.93,-1104.76,-16.36,-6.88,-1057.10,1.94,2.11,-5.83,1174,1171,1180,1183
35551,-54,-480,15493,-40.44,83.00,-36.71,239.75,313.36,1420.64,-21.10,-19.24,-1104.84,-16.36,-6.88,-1057.10,0.59,3.02,-5.88,1173,1172,1179,1184
35557,156,271,15213,-2.66,82.20,-47.09,239.75,313.36,1420.64,-20.55,-18.00,-1105.05,-16.36,-6.88,-1057.10,0.16,1.86,-6.02,1172,1172,1180,1183
35578,448,-211,15634,-16.23,89.39,-26.07,239.75,313.36,1418.70,-22.65,-18.61,-1104.91,-16.31,-6.84,-1057.10,2.01,2.13,-5.79,1184,1181,1190,1193
35585,-200,433,15409,-23.94,75.82,-35.65,239.75,313.36,1418.70,-21.52,-17.70,-1105.09,-16.31,-6.84,-1057.10,0.98,1.34,-5.93,1183,1181,1190,1192
35592,335,-226,16081,-4.26,79.01,-32.19,239.75,313.36,1418.70,-22.10,-17.97,-1104.93,-16.31,-6.84,-1057.10,1.38,1.54,-5.78,1183,1181,1190,1192
35598,785,272,15758,-25.81,86.46,-21.81,239.75,313.36,1418.70,-22.53,-17.35,-1105.01,-16.31,-6.84,-1057.10,1.63,1.04,-5.84,1183,1181,1190,1192
35605,535,-552,15389,-2.93,90.45,-33.79,239.75,313.36,1418.70,-22.83,-18.40,-1105.10,-16.31,-6.84,-1057.10,1.74,1.89,-5.90,1184,1181,1190,1193
35611,197,-182,15559,-45.49,90.98,-44.43,239.75,313.36,1418.70,-22.12,-18.39,-1104.81,-16.31,-6.84,-1057.10,1.07,1.82,-5.66,1183,1182,1190,1192
35633,532,-24,15526,-11.97,89.39,-41.77,239.75,313.36,1420.64,-23.88,-16.70,-1105.27,-16.27,-6.80,-1057.10,2.34,0.26,-6.05,1184,1180,1191,1192
35640,329,-480,15553,-24.47,84.60,-47.35,241.32,313.36,1422.59,-23.74,-18.15,-1105.38,-16.27,-6.80,-1057.10,2.02,1.52,-6.10,1184,1180,1190,1193
35646,-238,55,15166,-16.76,84.60,-46.82,241.32,313.36,1422.59,-22.11,-17.65,-1105.59,-16.27,-6.80,-1057.10,0.62,1.11,-6.23,1182,1181,1191,1192
35653,477,-464,16091,-12.77,84.07,-29.53,239.75,313.36,1422.59,-22.51,-18.68,-1105.61,-16.27,-6.80,-1057.10,0.94,1.94,-6.18,1183,1181,1190,1193
35660,1093,-23,15853,-36.18,85.66,-22.88,239.75,313.36,1422.59,-23.19,-18.65,-1105.70,-16.27,-6.80,-1057.10,1.44,1.85,-6.21,1183,1181,1190,1193
35666,10,55,15041,1.33,84.07,-34.85,241.32,313.36,1422.59,-21.76,-17.54,-1105.79,-16.27,-6.80,-1057.10,0.25,0.93,-6.22,1182,1182,1191,1192
35689,459,-294,15587,-19.69,82.20,-20.22,241.32,313.36,1424.54,-23.82,-19.48,-1105.52,-16.23,-6.76,-1057.10,2.10,2.66,-5.84,1188,1185,1193,1197
35695,-152,764,15472,-9.05,76.88,-39.90,241.32,313.36,1424.54,-22.90,-18.37,-1105.75,-16.23,-6.76,-1057.10,1.24,1.66,-6.01,1187,1185,1194,1197
35702,78,-310,15426,-9.58,76.09,-42.57,246.06,313.36,1424.54,-21.57,-19.34,-1105.63,-16.23,-6.76,-1057.10,0.14,2.38,-5.90,1186,1186,1193,1197
35708,542,-244,16275,-13.83,94.18,-31.66,246.06,313.36,1424.54,-22.19,-19.53,-1105.65,-16.23,-6.76,-1057.10,0.69,2.42,-5.90,1187,1186,1193,1197
35716,583,-696,14994,-31.13,89.92,-25.81,246.06,313.36,1424.54,-22.45,-20.80,-1105.70,-16.23,-6.76,-1057.10,0.89,3.28,-5.93,1187,1185,1193,1198
35722,170,491,15434,-15.70,85.66,-48.95,246.06,313.36,1424.54,-21.90,-19.65,-1105.95,-16.23,-6.76,-1057.10,0.45,2.19,-6.12,1186,1186,1194,1197
35743,376,-419,15639,-17.82,89.39,-38.31,247.63,313.36,1426.48,-22.86,-22.86,-1105.96,-16.18,-6.72,-1057.10,1.33,4.52,-6.02,1191,1189,1196,1203
35749,379,548,15679,-16.76,73.42,-40.17,247.63,313.36,1426.48,-22.68,-21.72,-1106.18,-16.18,-6.72,-1057.10,1.12,3.31,-6.16,1191,1189,1197,1202
35757,475,443,15145,-9.58,75.82,-48.15,249.21,314.98,1426.48,-22.71,-20.49,-1106.46,-16.18,-6.72,-1057.10,1.10,2.14,-6.34,1191,1189,1198,1201
35763,180,-407,17123,-3.72,79.28,-22.08,249.21,314.98,1426.48,-22.12,-21.55,-1106.18,-16.18,-6.72,-1057.10,0.60,2.90,-6.08,1190,1189,1197,1202
35770,498,-901,14492,-34.32,92.85,-10.11,247.63,314.98,1426.48,-22.09,-23.05,-1106.14,-16.18,-6.72,-1057.10,0.59,3.91,-6.02,1190,1190,1196,1202
35776,165,507,17128,-20.22,77.95,-31.66,247.63,314.98,1426.48,-21.56,-21.94,-1106.29,-16.18,-6.72,-1057.10,0.20,2.80,-6.11,1190,1190,1197,1201
35798,528,-290,15223,-14.63,90.45,-24.47,249.21,314.98,1426.48,-23.77,-22.85,-1106.21,-16.13,-6.68,-1057.10,2.19,3.12,-5.96,1192,1188,1197,1202
35805,-269,367,16116,-19.42,63.32,-44.96,250.79,314.98,1428.43,-22.49,-21.85,-1106.46,-16.13,-6.68,-1057.10,1.01,2.18,-6.15,1191,1189,1198,1201
35812,805,268,15112,-19.95,93.91,-57.73,250.79,314.98,1428.43,-22.89,-21.19,-1106.77,-16.13,-6.68,-1057.10,1.30,1.62,-6.36,1191,1189,1198,1201
35819,408,-513,16010,0.80,73.96,-27.93,250.79,314.98,1428.43,-23.22,-22.23,-1106.73,-16.13,-6.68,-1057.10,1.49,2.44,-6.27,1191,1189,1198,1201
35825,815,-557,14945,-25.81,126.90,-17.03,250.79,314.98,1428.43,-23.54,-22.94,-1106.75,-16.13,-6.68,-1057.10,1.65,2.92,-6.24,1191,1189,1197,1202
35832,-330,3,16005,-26.60,71.56,-55.87,252.37,314.98,1428.43,-21.79,-22.48,-1107.03,-16.13,-6.68,-1057.10,0.19,2.43,-6.42,1190,1190,1198,1201
35853,544,-124,15636,-12.77,95.51,-29.80,249.21,314.98,1430.38,-23.68,-21.42,-1107.14,-16.08,-6.64,-1057.10,1.93,1.34,-6.33,1193,1190,1200,1203
35860,-158,-211,15652,-30.06,75.02,-47.09,249.21,314.98,1430.38,-21.97,-21.50,-1107.26,-16.08,-6.64,-1057.10,0.48,1.46,-6.38,1192,1191,1200,1203
35866,784,297,15423,-18.36,84.07,-45.49,249.21,314.98,1430.38,-22.45,-20.71,-1107.52,-16.08,-6.64,-1057.10,0.88,0.89,-6.53,1192,1191,1201,1202
35873,38,-243,15810,6.12,90.98,-8.51,249.21,314.98,1430.38,-20.88,-20.80,-1107.14,-16.08,-6.64,-1057.10,-0.35,1.06,-6.18,1192,1192,1201,1202
35879,718,-96,15801,-32.72,101.89,-10.38,249.21,314.98,1430.38,-21.52,-20.73,-1107.09,-16.08,-6.64,-1057.10,0.28,1.10,-6.12,1192,1192,1200,1202
35886,-233,-873,15316,-16.23,69.97,-55.60,249.21,314.98,1430.38,-20.47,-21.89,-1107.33,-16.08,-6.64,-1057.10,-0.49,2.07,-6.29,1191,1192,1200,1203
35893,687,147,15364,-28.73,69.17,-51.34,249.21,314.98,1430.38,-21.14,-21.29,-1107.60,-16.08,-6.64,-1057.10,0.18,1.57,-6.46,1192,1192,1200,1203
35914,409,-41,15455,-12.50,87.79,-33.25,247.63,314.98,1430.38,-22.58,-19.13,-1107.66,-16.02,-6.60,-1057.10,1.53,-0.10,-6.34,1198,1196,1207,1206
35920,272,-310,15745,-26.87,76.88,-44.69,247.63,314.98,1430.38,-22.77,-20.07,-1107.53,-16.02,-6.60,-1057.10,1.58,0.82,-6.20,1198,1196,1206,1207
35928,108,-249,15431,1.06,104.02,-11.71,247.63,314.98,1430.38,-21.25,-20.43,-1107.01,-16.02,-6.60,-1057.10,0.30,1.22,-5.78,1197,1197,1205,1207
35934,879,-138,16168,-14.90,97.63,-19.69,247.63,314.98,1430.38,-21.87,-20.37,-1107.04,-16.02,-6.60,-1057.10,0.82,1.23,-5.83,1198,1196,1205,1207
35941,383,-374,14860,-29.80,81.14,-57.20,247.63,314.98,1430.38,-22.36,-21.33,-1107.18,-16.02,-6.60,-1057.10,1.18,2.03,-5.96,1198,1196,1205,1208
35947,-98,300,16071,-12.77,77.42,-34.58,247.63,314.98,1430.38,-21.31,-20.31,-1107.31,-16.02,-6.60,-1057.10,0.32,1.20,-6.07,1197,1197,1205,1207
35969,452,-191,15425,-19.15,84.86,-29.00,253.94,314.98,1430.38,-23.57,-20.61,-1107.14,-15.97,-6.57,-1057.10,2.29,1.63,-5.91,1204,1200,1210,1212
35976,130,90,16553,-2.13,77.95,-36.71,250.79,314.98,1430.38,-22.74,-19.31,-1107.19,-15.97,-6.57,-1057.10,1.45,0.63,-5.96,1203,1201,1211,1212
35982,560,-5,14412,-21.55,88.59,-16.23,250.79,314.98,1430.38,-23.31,-18.95,-1107.16,-15.97,-6.57,-1057.10,1.81,0.47,-5.94,1203,1201,1211,1211
35989,268,-295,16320,-6.12,70.76,-47.35,247.63,314.98,1432.33,-23.44,-19.82,-1106.94,-15.97,-6.57,-1057.10,1.78,1.29,-5.78,1203,1201,1210,1212
35995,639,15,15048,-36.18,72.89,-62.78,247.63,314.98,1432.33,-24.09,-19.49,-1107.22,-15.97,-6.57,-1057.10,2.17,1.07,-6.03,1204,1200,1210,1212
36002,21,-217,16083,-7.98,82.74,-36.45,250.79,314.98,1432.33,-22.26,-19.58,-1107.09,-15.97,-6.57,-1057.10,0.58,1.21,-5.92,1202,1201,1210,1212
36024,401,-158,15611,-21.28,87.26,-39.37,250.79,314.98,1432.33,-24.35,-19.33,-1106.99,-15.92,-6.53,-1057.10,2.36,1.17,-5.88,1204,1200,1210,1212
36030,431,363,14399,-18.36,85.13,-13.30,250.79,314.98,1432.33,-24.32,-18.31,-1107.00,-15.92,-6.53,-1057.10,2.17,0.42,-5.90,1204,1200,1211,1211
36037,549,-530,16526,-2.93,96.84,-25.81,250.79,314.98,1434.27,-24.62,-19.31,-1107.00,-15.92,-6.53,-1057.10,2.23,1.33,-5.91,1204,1200,1210,1212
36043,445,-264,14050,-27.14,78.75,-49.22,250.79,314.98,1434.27,-25.27,-19.83,-1107.08,-15.92,-6.53,-1057.10,2.59,1.77,-5.99,1204,1200,1210,1212
36050,381,-139,16825,-8.51,88.59,-23.68,250.79,316.60,1434.27,-25.62,-19.20,-1106.86,-15.92,-6.53,-1057.10,2.65,1.26,-5.81,1204,1200,1210,1212
36057,458,-74,14421,-23.14,77.68,-13.57,250.79,316.60,1434.27,-26.20,-18.83,-1106.75,-15.92,-6.53,-1057.10,2.91,1.00,-5.75,1204,1200,1210,1212
36078,404,63,16050,-11.97,84.86,-35.38,253.94,316.60,1434.27,-26.54,-15.68,-1106.86,-15.87,-6.49,-1057.10,2.49,-1.35,-5.93,1205,1201,1213,1211
36084,396,-940,14519,-6.65,72.09,-20.75,253.94,316.60,1434.27,-26.36,-16.93,-1106.89,-15.87,-6.49,-1057.10,2.20,-0.07,-5.95,1205,1201,1212,1212
36091,-30,210,16103,-28.20,102.42,-40.70,253.94,314.98,1434.27,-24.83,-15.99,-1107.03,-15.87,-6.49,-1057.10,0.88,-0.62,-6.07,1204,1202,1213,1212
36098,509,-86,16039,-21.81,80.87,-29.00,253.94,314.98,1434.27,-25.50,-15.91,-1106.99,-15.87,-6.49,-1057.10,1.42,-0.46,-6.02,1204,1202,1212,1212
36105,902,-159,14619,-30.59,93.11,-27.67,253.94,314.98,1434.27,-26.23,-16.17,-1107.08,-15.87,-6.49,-1057.10,1.96,-0.03,-6.09,1204,1201,1212,1212
36111,177,-684,16598,11.71,74.76,-38.84,253.94,314.98,1434.27,-25.62,-17.32,-1107.15,-15.87,-6.49,-1057.10,1.39,1.01,-6.13,1204,1202,1211,1213
36132,353,64,15580,-21.02,88.06,-35.65,253.94,316.60,1434.27,-25.81,-14.23,-1107.15,-15.82,-6.45,-1057.10,1.45,-1.37,-6.07,1210,1208,1219,1217
36139,447,-264,14422,-1.06,98.43,-52.14,253.94,316.60,1434.27,-26.21,-14.88,-1107.24,-15.82,-6.45,-1057.10,1.73,-0.58,-6.14,1210,1207,1219,1218
36146,118,-356,16951,-39.90,74.49,-33.79,253.94,316.60,1434.27,-25.04,-16.30,-1107.12,-15.82,-6.45,-1057.10,0.75,0.75,-6.03,1209,1208,1217,1219
36152,1003,510,14297,-16.23,101.62,-34.85,253.94,316.60,1434.27,-25.38,-15.63,-1107.30,-15.82,-6.45,-1057.10,1.06,0.28,-6.16,1210,1208,1218,1218
36159,14,-427,16124,9.58,83.53,-41.77,255.52,316.60,1438.17,-24.04,-16.68,-1107.32,-15.82,-6.45,-1057.10,0.03,1.22,-6.16,1209,1209,1217,1219
36165,413,-768,14143,-65.18,110.94,-39.11,255.52,316.60,1438.17,-23.81,-18.23,-1107.45,-15.82,-6.45,-1057.10,-0.03,2.42,-6.24,1209,1209,1216,1220
36187,331,-148,15936,-13.30,71.56,-28.73,255.52,314.98,1440.12,-25.84,-17.89,-1106.59,-15.76,-6.41,-1057.10,2.04,1.71,-5.46,1214,1211,1219,1222
36194,132,352,16224,-5.85,85.93,-18.36,255.52,314.98,1440.12,-24.99,-16.54,-1106.60,-15.76,-6.41,-1057.10,1.26,0.62,-5.54,1213,1211,1220,1221
36200,531,633,13976,-35.65,85.13,-30.59,255.52,314.98,1440.12,-24.98,-15.64,-1106.75,-15.76,-6.41,-1057.10,1.24,-0.01,-5.70,1213,1211,1221,1221
36207,450,-234,15821,29.53,89.65,-40.97,255.52,316.60,1442.06,-25.59,-15.91,-1106.72,-15.76,-6.41,-1057.10,1.69,0.36,-5.72,1213,1211,1221,1221
36213,622,-1559,15798,-46.02,102.95,-25.27,255.52,316.60,1442.06,-25.29,-17.38,-1106.81,-15.76,-6.41,-1057.10,1.40,1.60,-5.81,1213,1211,1220,1222
36220,-141,718,15104,-40.97,93.11,-19.15,257.10,316.60,1442.06,-24.11,-16.34,-1106.90,-15.76,-6.41,-1057.10,0.45,0.75,-5.91,1212,1212,1220,1222
36242,492,-165,15623,-9.05,82.74,-45.23,257.10,318.22,1442.06,-26.44,-16.83,-1107.05,-15.71,-6.37,-1057.10,2.58,1.34,-6.06,1214,1210,1220,1222
36249,546,24,16556,-10.64,73.16,-50.28,257.10,318.22,1442.06,-27.02,-16.25,-1107.18,-15.71,-6.37,-1057.10,2.86,0.88,-6.15,1214,1209,1220,1222
36256,488,-655,13810,-46.82,83.00,-52.94,261.83,318.22,1444.01,-27.11,-17.79,-1107.39,-15.71,-6.37,-1057.10,2.72,2.13,-6.30,1214,1209,1220,1223
36262,-485,-520,17611,8.51,93.11,-29.26,261.83,318.22,1444.01,-25.41,-18.25,-1107.46,-15.71,-6.37,-1057.10,1.23,2.38,-6.32,1212,1211,1219,1223
36270,734,646,14718,-28.47,70.76,-29.53,261.83,318.22,1444.01,-25.71,-17.29,-1107.62,-15.71,-6.37,-1057.10,1.46,1.50,-6.40,1213,1210,1220,1222
36276,621,19,15444,27.14,89.92,-42.30,261.83,318.22,1444.01,-26.29,-16.67,-1107.73,-15.71,-6.37,-1057.10,1.87,1.00,-6.44,1213,1210,1221,1222
36283,562,-641,15983,-42.57,100.83,-18.62,260.25,318.22,1444.01,-26.38,-18.11,-1107.68,-15.71,-6.37,-1057.10,1.86,2.15,-6.36,1213,1210,1220,1223
36303,308,-291,15094,-17.03,90.72,-17.56,260.25,318.22,1444.01,-26.71,-21.33,-1106.61,-15.66,-6.33,-1057.10,1.88,4.45,-5.36,1214,1211,1217,1224
36311,114,166,17486,-32.72,104.55,-14.37,260.25,318.22,1444.01,-25.66,-20.38,-1106.56,-15.66,-6.33,-1057.10,1.00,3.38,-5.40,1213,1211,1218,1223
36317,447,638,15529,-10.11,59.06,-30.33,257.10,316.60,1444.01,-25.61,-19.09,-1106.72,-15.66,-6.33,-1057.10,0.99,2.14,-5.60,1213,1211,1219,1222
36324,1045,-958,15377,14.63,102.16,-48.95,257.10,316.60,1444.01,-25.90,-19.83,-1106.95,-15.66,-6.33,-1057.10,1.24,2.64,-5.82,1213,1211,1219,1223
36330,-437,209,15996,-46.82,87.52,-24.21,260.25,318.22,1444.01,-24.09,-19.41,-1107.04,-15.66,-6.33,-1057.10,-0.16,2.16,-5.91,1212,1212,1219,1223
36337,696,355,13726,9.84,80.08,-34.32,260.25,318.22,1444.01,-24.50,-18.47,-1107.19,-15.66,-6.33,-1057.10,0.30,1.36,-6.04,1212,1212,1220,1222
36359,483,-351,16148,-19.42,98.17,-46.56,260.25,316.60,1444.01,-25.97,-20.96,-1107.35,-15.62,-6.29,-1057.10,1.83,3.43,-6.16,1221,1218,1226,1232
36366,106,858,15650,-18.09,51.34,-61.19,260.25,318.22,1445.96,-25.48,-19.69,-1107.74,-15.62,-6.29,-1057.10,1.37,2.21,-6.44,1220,1218,1228,1231
36372,536,-1316,13626,-17.03,106.41,-47.62,260.25,318.22,1445.96,-25.19,-21.00,-1107.97,-15.62,-6.29,-1057.10,1.12,3.15,-6.57,1220,1218,1227,1232
36379,334,-156,18002,-34.85,88.06,-32.19,258.68,316.60,1445.96,-25.38,-20.48,-1107.65,-15.62,-6.29,-1057.10,1.27,2.55,-6.26,1220,1219,1227,1231
36385,259,789,12684,-1.06,56.40,-44.16,258.68,316.60,1445.96,-25.15,-19.24,-1107.90,-15.62,-6.29,-1057.10,1.08,1.48,-6.43,1220,1219,1228,1230
36392,1217,-1046,16606,-7.45,120.51,-35.91,258.68,316.60,1445.96,-25.38,-20.19,-1108.08,-15.62,-6.29,-1057.10,1.27,2.23,-6.52,1220,1218,1228,1231
36414,299,-136,16063,-17.29,82.74,-17.03,258.68,316.60,1445.96,-26.12,-18.46,-1106.73,-15.58,-6.25,-1057.10,1.83,0.59,-5.26,1222,1219,1228,1229
36420,-834,-129,13477,-30.06,55.60,-6.92,258.68,316.60,1445.96,-24.50,-18.62,-1106.72,-15.58,-6.25,-1057.10,0.50,0.82,-5.33,1221,1220,1228,1229
36427,229,445,16232,29.26,123.97,-15.43,258.68,318.22,1445.96,-23.71,-17.02,-1106.73,-15.58,-6.25,-1057.10,-0.03,-0.33,-5.43,1220,1220,1229,1228
36433,1970,-4,16281,-62.52,42.03,-28.20,258.68,318.22,1445.96,-24.69,-17.30,-1106.86,-15.58,-6.25,-1057.10,0.85,0.09,-5.60,1221,1219,1229,1229
36441,-702,-700,13670,1.06,121.31,-27.14,261.83,318.22,1445.96,-22.66,-18.07,-1106.97,-15.58,-6.25,-1057.10,-0.69,0.87,-5.74,1219,1220,1228,1229
36447,407,881,18438,-43.90,98.43,-30.86,261.83,318.22,1445.96,-22.34,-17.14,-1107.10,-15.58,-6.25,-1057.10,-0.75,0.21,-5.87,1219,1220,1229,1229
36468,553,-250,15235,-14.63,80.34,-48.42,261.83,318.22,1447.91,-24.66,-18.51,-1107.47,-15.54,-6.21,-1057.10,1.81,1.80,-6.23,1221,1218,1228,1230
36474,-152,118,15764,-22.35,82.20,-57.46,261.83,318.22,1447.91,-23.24,-17.84,-1107.66,-15.54,-6.21,-1057.10,0.62,1.24,-6.35,1220,1219,1228,1230
36482,1046,-319,15241,-13.30,96.30,-48.68,261.83,318.22,1455.70,-23.95,-18.19,-1107.91,-15.54,-6.21,-1057.10,1.21,1.53,-6.50,1220,1218,1228,1230
36488,-203,-702,14740,-30.59,79.01,-48.42,261.83,318.22,1455.70,-22.79,-19.41,-1108.07,-15.54,-6.21,-1057.10,0.29,2.46,-6.58,1219,1219,1227,1231
36495,190,-179,17548,3.19,107.48,-40.70,261.83,318.22,1455.70,-22.43,-19.11,-1107.42,-15.54,-6.21,-1057.10,0.09,2.11,-6.01,1220,1220,1227,1231
36501,1704,209,12774,-16.49,79.01,-30.59,261.83,318.22,1455.70,-23.17,-18.94,-1107.59,-15.54,-6.21,-1057.10,0.76,1.91,-6.14,1220,1219,1228,1231
36523,377,-200,15588,-22.35,77.68,-19.42,261.83,318.22,1455.70,-25.40,-19.88,-1106.84,-15.49,-6.19,-1057.10,2.64,2.51,-5.50,1223,1219,1228,1231
36530,-1491,52,17664,-6.65,97.37,-24.21,263.41,316.60,1455.70,-23.31,-19.71,-1106.96,-15.49,-6.19,-1057.10,0.80,2.25,-5.66,1222,1220,1228,1231
36536,617,187,14813,-12.50,110.40,-16.49,263.41,316.60,1455.70,-23.61,-19.05,-1106.96,-15.49,-6.19,-1057.10,1.05,1.66,-5.70,1222,1220,1228,1231
36543,1489,-784,15298,-32.19,83.27,-12.24,263.41,318.22,1451.80,-24.32,-19.89,-1106.97,-15.49,-6.19,-1057.10,1.60,2.30,-5.75,1222,1220,1228,1231
36549,-1225,64,16144,-8.51,116.52,-31.66,263.41,318.22,1451.80,-22.38,-19.71,-1107.13,-15.49,-6.19,-1057.10,0.02,2.08,-5.90,1221,1221,1228,1231
36556,1312,-212,14960,-11.17,103.22,-26.60,263.41,316.60,1451.80,-23.06,-19.84,-1107.25,-15.49,-6.19,-1057.10,0.67,2.11,-6.01,1221,1220,1228,1232
36579,482,3,15352,-18.36,86.99,-39.11,264.98,316.60,1451.80,-24.97,-18.30,-1107.39,-15.44,-6.15,-1057.10,2.33,0.66,-6.13,1225,1222,1232,1233
36585,491,-608,18712,-13.57,65.71,-29.80,264.98,316.60,1451.80,-25.25,-19.37,-1107.35,-15.44,-6.15,-1057.10,2.39,1.59,-6.09,1225,1222,1232,1234
36592,37,590,12898,7.71,116.52,-52.41,263.41,316.60,1451.80,-24.21,-17.91,-1107.67,-15.44,-6.15,-1057.10,1.42,0.45,-6.32,1225,1222,1233,1233
36598,485,-880,16373,-52.94,68.90,-44.43,263.41,316.60,1451.80,-24.29,-19.38,-1107.81,-15.44,-6.15,-1057.10,1.43,1.71,-6.40,1224,1222,1232,1235
36605,639,77,16406,-8.78,118.38,-30.86,263.41,316.60,1451.80,-24.66,-18.76,-1107.86,-15.44,-6.15,-1057.10,1.67,1.21,-6.40,1225,1222,1232,1234
36612,727,-155,13807,14.37,98.17,-49.48,263.41,316.60,1451.80,-25.29,-18.68,-1108.05,-15.44,-6.15,-1057.10,2.08,1.19,-6.51,1225,1222,1232,1234
36633,343,-103,15988,-18.89,88.85,-37.24,263.41,316.60,1451.80,-26.77,-17.58,-1107.39,-15.39,-6.11,-1057.10,2.91,0.43,-5.81,1226,1222,1232,1233
36639,-1136,148,16481,-65.98,93.11,-46.56,263.41,316.60,1451.80,-24.98,-17.71,-1107.64,-15.39,-6.11,-1057.10,1.33,0.65,-6.02,1225,1223,1232,1233
36646,660,-283,14056,1.06,61.19,-18.62,263.41,316.60,1451.80,-25.90,-18.09,-1107.60,-15.39,-6.11,-1057.10,2.02,1.06,-6.00,1225,1222,1232,1234
36653,409,-870,16766,-13.57,26.87,-44.69,263.41,316.60,1451.80,-26.08,-19.36,-1107.72,-15.39,-6.11,-1057.10,2.06,2.08,-6.10,1225,1222,1231,1235
36660,-467,778,15806,-26.07,77.95,-48.68,263.41,316.60,1451.80,-24.73,-18.37,-1108.03,-15.39,-6.11,-1057.10,0.90,1.24,-6.33,1224,1223,1232,1234
36666,1265,-614,13919,9.58,59.33,-7.18,263.41,316.60,1451.80,-25.49,-18.79,-1108.00,-15.39,-6.11,-1057.10,1.52,1.60,-6.29,1225,1222,1232,1234
36673,849,-578,17902,-34.32,69.43,-28.20,263.41,318.22,1451.80,-26.21,-19.75,-1108.04,-15.39,-6.11,-1057.10,2.03,2.33,-6.29,1225,1222,1231,1235
36695,273,-106,15773,-16.49,86.99,-33.52,263.41,318.22,1451.80,-26.25,-17.49,-1106.90,-15.33,-6.07,-1057.10,1.75,0.21,-5.29,1226,1223,1232,1233
36702,160,486,14205,-18.89,103.49,-40.44,264.98,318.22,1453.75,-25.47,-16.21,-1107.09,-15.33,-6.07,-1057.10,1.09,-0.63,-5.54,1225,1223,1233,1232
36708,380,-979,13291,20.48,68.37,-7.71,264.98,318.22,1453.75,-25.36,-17.27,-1107.03,-15.33,-6.07,-1057.10,1.02,0.43,-5.55,1225,1223,1232,1233
36715,1066,-176,19508,-51.88,72.36,-31.66,263.41,318.22,1453.75,-26.26,-17.62,-1107.12,-15.33,-6.07,-1057.10,1.74,0.83,-5.68,1225,1223,1232,1233
36721,572,1368,9117,-0.80,109.07,-54.80,263.41,318.22,1453.75,-25.95,-16.43,-1107.47,-15.33,-6.07,-1057.10,1.45,-0.03,-5.99,1225,1223,1233,1233
36728,647,-906,16891,-10.64,70.76,-29.00,263.41,319.84,1451.80,-26.15,-17.72,-1107.54,-15.33,-6.07,-1057.10,1.58,1.16,-6.05,1225,1222,1232,1234
36749,212,-103,14740,-25.81,104.82,-42.30,263.41,319.84,1451.80,-24.74,-16.31,-1105.95,-15.29,-6.03,-1057.10,0.31,0.12,-4.77,1227,1226,1234,1234
36756,1113,-525,23703,-23.14,118.12,-46.82,263.41,319.84,1451.80,-25.15,-16.88,-1106.10,-15.29,-6.03,-1057.10,0.73,0.70,-5.02,1227,1226,1234,1235
36762,-129,626,9910,9.58,67.31,-69.70,269.72,319.84,1451.80,-24.24,-15.46,-1106.54,-15.29,-6.03,-1057.10,0.09,-0.32,-5.48,1226,1226,1235,1234
36769,98,-642,17721,-60.66,79.54,-32.19,269.72,319.84,1451.80,-23.62,-17.04,-1106.52,-15.29,-6.03,-1057.10,-0.27,1.09,-5.52,1226,1226,1234,1235
36775,1033,-822,18554,-2.13,97.63,-21.55,263.41,318.22,1451.80,-24.04,-17.91,-1106.55,-15.29,-6.03,-1057.10,0.24,1.80,-5.60,1226,1226,1233,1236
36783,-308,912,9876,10.11,42.83,-63.05,263.41,318.22,1451.80,-23.31,-16.66,-1106.93,-15.29,-6.03,-1057.10,-0.23,0.78,-5.94,1226,1226,1234,1235
36804,480,-105,16111,-19.69,75.29,-25.27,269.72,319.84,1453.75,-25.86,-16.91,-1106.53,-15.24,-5.99,-1057.10,2.37,1.20,-5.63,1233,1229,1239,1240
36810,-998,-208,16771,-30.33,90.45,-8.78,269.72,319.84,1453.75,-24.05,-17.17,-1106.51,-15.24,-5.99,-1057.10,0.83,1.41,-5.65,1231,1230,1238,1241
36817,1622,-888,17090,-9.58,75.55,-20.48,268.14,319.84,1453.75,-24.78,-17.88,-1106.57,-15.24,-5.99,-1057.10,1.44,1.96,-5.74,1232,1230,1238,1241
36824,-254,250,11976,-3.99,41.50,-66.77,268.14,319.84,1453.75,-23.65,-17.04,-1106.88,-15.24,-5.99,-1057.10,0.52,1.24,-6.00,1231,1230,1239,1241
36831,490,197,17852,-34.05,111.73,-16.23,268.14,319.84,1453.75,-23.82,-16.29,-1106.77,-15.24,-5.99,-1057.10,0.73,0.67,-5.92,1231,1230,1239,1240
36837,958,-882,15023,-2.39,87.52,-34.85,268.14,319.84,1453.75,-24.20,-17.15,-1106.90,-15.24,-5.99,-1057.10,1.05,1.41,-6.02,1231,1230,1239,1241
36858,639,-345,15606,-19.42,95.24,-50.28,268.14,318.22,1455.70,-26.02,-19.21,-1107.36,-15.19,-5.95,-1057.10,2.55,3.05,-6.38,1236,1232,1242,1246
36865,-323,1087,14020,-21.55,76.88,-65.18,268.14,318.22,1455.70,-25.10,-18.17,-1107.75,-15.19,-5.95,-1057.10,1.67,2.07,-6.63,1235,1233,1243,1246
36872,344,231,16430,0.53,122.11,-13.83,266.56,318.22,1455.70,-24.77,-16.90,-1107.64,-15.19,-5.95,-1057.10,1.35,0.99,-6.47,1235,1233,1243,1245
36878,858,-955,17246,-15.96,68.10,-21.28,266.56,318.22,1455.70,-25.16,-17.97,-1107.66,-15.19,-5.95,-1057.10,1.63,1.86,-6.44,1235,1233,1243,1246
36885,136,614,12100,-45.49,96.84,-44.43,268.14,319.84,1457.64,-24.49,-16.88,-1107.91,-15.19,-5.95,-1057.10,1.05,0.95,-6.58,1235,1233,1243,1245
36891,268,-490,18603,36.98,105.61,-11.17,268.14,319.84,1457.64,-24.14,-17.78,-1107.66,-15.19,-5.95,-1057.10,0.78,1.70,-6.32,1235,1234,1243,1245
36913,322,-94,15408,-13.04,89.39,-23.68,268.14,318.22,1459.59,-25.89,-17.14,-1106.69,-15.14,-5.92,-1057.10,2.33,1.06,-5.43,1239,1235,1244,1246
36920,483,-914,16772,-40.97,82.20,-24.74,268.14,318.22,1459.59,-25.81,-18.74,-1106.71,-15.14,-5.92,-1057.10,2.12,2.35,-5.52,1239,1235,1244,1247
36926,634,541,12200,-53.47,122.37,-45.76,268.14,318.22,1459.59,-25.78,-18.06,-1106.95,-15.14,-5.92,-1057.10,1.99,1.72,-5.76,1238,1235,1244,1247
36933,-191,993,17468,38.04,131.69,-14.90,268.14,318.22,1461.54,-24.40,-16.44,-1107.01,-15.14,-5.92,-1057.10,0.82,0.42,-5.84,1237,1236,1245,1246
36939,282,-1750,15962,-37.24,55.87,-25.01,268.14,318.22,1461.54,-24.15,-17.90,-1107.08,-15.14,-5.92,-1057.10,0.66,1.66,-5.91,1237,1236,1244,1247
36946,797,-230,13334,-56.40,113.86,-42.57,269.72,319.84,1461.54,-24.74,-18.52,-1107.26,-15.14,-5.92,-1057.10,1.18,2.11,-6.06,1237,1236,1244,1247
36968,35,-118,15457,-21.02,60.39,-28.20,269.72,319.84,1461.54,-20.23,-17.99,-1105.86,-15.10,-5.88,-1057.10,-2.49,1.43,-4.91,1235,1239,1244,1246
36974,1006,711,17176,30.33,30.59,-23.41,269.72,319.84,1461.54,-20.97,-16.95,-1105.94,-15.10,-5.88,-1057.10,-1.52,0.62,-5.09,1236,1238,1245,1246
36981,341,-1677,18824,2.39,73.16,-42.30,272.87,318.22,1461.54,-20.70,-18.30,-1106.12,-15.10,-5.88,-1057.10,-1.42,1.77,-5.34,1236,1238,1244,1247
36987,-568,602,8971,-79.81,107.74,-46.82,272.87,318.22,1461.54,-19.19,-17.86,-1106.37,-15.10,-5.88,-1057.10,-2.32,1.40,-5.60,1235,1239,1244,1247
36995,1234,976,17020,17.03,69.97,-38.04,272.87,318.22,1461.54,-19.75,-16.79,-1106.58,-15.10,-5.88,-1057.10,-1.50,0.57,-5.81,1236,1238,1245,1246
37001,625,-1034,17926,-1.06,134.61,-43.90,272.87,318.22,1461.54,-19.58,-17.83,-1106.73,-15.10,-5.88,-1057.10,-1.37,1.46,-5.94,1236,1238,1245,1247
37023,553,-476,15817,-17.56,81.14,-43.90,272.87,319.84,1461.54,-21.35,-20.63,-1107.04,-15.05,-5.84,-1057.10,0.90,3.73,-6.20,1237,1236,1243,1249
37029,-755,533,12810,-66.51,85.13,-39.11,272.87,319.84,1461.54,-19.87,-20.25,-1107.23,-15.05,-5.84,-1057.10,-0.26,3.20,-6.32,1236,1236,1244,1248
37037,115,899,14286,-21.28,-5.59,-36.71,272.87,318.22,1465.43,-20.02,-18.99,-1107.40,-15.05,-5.84,-1057.10,-0.03,2.00,-6.41,1236,1236,1245,1248
37043,1581,-1406,18926,27.14,75.29,-46.82,272.87,318.22,1465.43,-20.53,-19.61,-1107.62,-15.05,-5.84,-1057.10,0.45,2.43,-6.54,1236,1236,1244,1248
37050,-108,615,15866,-19.42,127.96,-44.16,272.87,318.22,1465.43,-19.33,-18.36,-1107.82,-15.05,-5.84,-1057.10,-0.45,1.36,-6.62,1236,1236,1245,1247
37056,-291,289,11462,-85.13,-8.51,-34.32,272.87,318.22,1465.43,-18.61,-17.94,-1107.88,-15.05,-5.84,-1057.10,-0.89,1.04,-6.60,1235,1237,1245,1247
37078,378,-179,16012,-11.44,116.26,-27.14,276.03,318.22,1465.43,-20.15,-18.94,-1107.42,-15.00,-5.80,-1057.10,0.92,2.03,-6.01,1236,1235,1243,1246
37084,484,-456,12979,4.26,132.22,-33.52,276.03,318.22,1465.43,-20.32,-19.75,-1107.47,-15.00,-5.80,-1057.10,1.02,2.60,-6.05,1236,1235,1243,1247
37091,1034,-262,19575,28.47,128.49,-44.96,276.03,318.22,1465.43,-20.76,-19.67,-1107.62,-15.00,-5.80,-1057.10,1.31,2.42,-6.17,1236,1234,1243,1247
37098,896,267,17086,-67.57,42.57,-41.24,276.03,319.84,1465.43,-21.72,-19.51,-1107.78,-15.00,-5.80,-1057.10,1.96,2.19,-6.28,1237,1234,1243,1247
37104,-763,-129,9725,-3.72,122.91,-49.75,276.03,319.84,1465.43,-19.72,-19.58,-1108.01,-15.00,-5.80,-1057.10,0.27,2.18,-6.44,1235,1235,1243,1247
37111,1297,-489,18856,30.33,81.41,-59.59,276.03,318.22,1467.38,-20.52,-19.71,-1108.32,-15.00,-5.80,-1057.10,0.94,2.20,-6.63,1236,1234,1244,1247
37117,541,-135,16475,-109.34,15.16,-41.24,276.03,318.22,1467.38,-21.64,-20.34,-1108.34,-15.00,-5.80,-1057.10,1.77,2.63,-6.58,1236,1234,1243,1247
37139,516,-175,15573,-3.99,82.20,-42.30,274.45,318.22,1465.43,-24.11,-20.55,-1108.45,-14.94,-5.76,-1057.10,3.35,2.41,-6.48,1242,1237,1247,1251
37145,-1474,-465,13534,-50.81,140.20,-31.92,274.45,318.22,1465.43,-22.01,-21.10,-1108.60,-14.94,-5.76,-1057.10,1.45,2.76,-6.56,1240,1238,1247,1251
37152,320,1619,13795,54.27,74.22,-24.74,274.45,319.84,1465.43,-21.69,-19.33,-1108.76,-14.94,-5.76,-1057.10,1.11,1.26,-6.63,1240,1238,1248,1250
37158,1428,-1678,18998,-50.28,64.65,8.25,274.45,319.84,1465.43,-22.12,-20.60,-1108.62,-14.94,-5.76,-1057.10,1.41,2.28,-6.47,1240,1238,1247,1251
37166,-737,-711,14308,-81.94,125.30,-1.60,274.45,321.46,1467.38,-20.06,-21.97,-1108.52,-14.94,-5.76,-1057.10,-0.27,3.28,-6.35,1239,1239,1246,1252
37172,1136,2269,13842,76.09,116.52,-10.11,274.45,321.46,1467.38,-19.84,-20.35,-1108.59,-14.94,-5.76,-1057.10,-0.33,1.86,-6.38,1239,1239,1248,1250
37193,271,181,16075,-24.21,81.41,-9.58,274.45,321.46,1467.38,-20.38,-17.42,-1107.97,-14.89,-5.72,-1057.10,0.50,-0.56,-5.79,1242,1241,1251,1250
37199,1725,-2811,17189,15.16,37.51,-20.48,274.45,321.46,1467.38,-20.81,-18.40,-1108.04,-14.89,-5.72,-1057.10,0.85,0.45,-5.89,1242,1241,1250,1251
37207,-599,-1048,13014,-76.88,51.61,-48.42,276.03,323.08,1467.38,-19.66,-20.10,-1108.27,-14.89,-5.72,-1057.10,-0.06,1.92,-6.10,1241,1241,1249,1252
37213,-73,3783,16484,1.06,45.23,-60.12,276.03,323.08,1467.38,-19.35,-18.84,-1108.65,-14.89,-5.72,-1057.10,-0.22,0.91,-6.39,1241,1241,1250,1252
37220,1230,-2016,17543,29.26,113.86,-43.63,276.03,323.08,1469.33,-19.31,-19.80,-1108.88,-14.89,-5.72,-1057.10,-0.14,1.76,-6.55,1241,1241,1250,1252
37226,-262,-1253,11760,-95.24,111.73,-59.06,276.03,323.08,1469.33,-18.33,-21.59,-1109.16,-14.89,-5.72,-1057.10,-0.82,3.13,-6.72,1240,1242,1249,1254
37248,531,-27,16493,-6.92,112.80,-44.43,276.03,323.08,1469.33,-19.98,-20.49,-1109.43,-14.84,-5.68,-1057.10,1.06,1.70,-6.73,1244,1242,1252,1255
37255,498,-262,12493,-66.24,92.31,-13.83,276.03,321.46,1469.33,-20.66,-21.34,-1109.32,-14.84,-5.68,-1057.10,1.53,2.38,-6.58,1244,1242,1251,1255
37261,-1352,1289,15121,77.95,106.68,-21.28,276.03,321.46,1469.33,-19.13,-19.96,-1109.43,-14.84,-5.68,-1057.10,0.24,1.24,-6.63,1243,1243,1252,1254
37268,1669,-766,19850,-46.82,67.57,-31.13,276.03,321.46,1469.33,-19.98,-20.74,-1109.55,-14.84,-5.68,-1057.10,0.94,1.92,-6.67,1244,1242,1252,1255
37274,978,-898,13132,-52.14,50.01,-5.05,276.03,321.46,1469.33,-20.64,-21.86,-1109.49,-14.84,-5.68,-1057.10,1.41,2.77,-6.58,1244,1242,1251,1255
37281,-1726,401,11275,13.83,43.10,-20.22,277.60,321.46,1467.38,-19.01,-21.36,-1109.59,-14.84,-5.68,-1057.10,0.05,2.27,-6.62,1243,1243,1251,1255
37303,586,-327,16344,-24.21,96.04,-26.87,279.18,321.46,1471.28,-21.00,-22.97,-1109.47,-14.79,-5.64,-1057.10,1.86,3.41,-6.38,1244,1241,1249,1255
37309,978,1780,16308,-22.88,82.20,-62.78,279.18,321.46,1471.28,-21.02,-21.98,-1109.84,-14.79,-5.64,-1057.10,1.73,2.47,-6.66,1243,1241,1250,1254
37316,1488,-1265,20363,31.13,148.71,-26.87,279.18,321.46,1471.28,-21.11,-22.55,-1109.93,-14.79,-5.64,-1057.10,1.67,2.85,-6.69,1243,1241,1250,1254
37322,-1431,-39,6917,-76.35,46.29,-57.73,279.18,321.46,1471.28,-19.59,-22.99,-1110.26,-14.79,-5.64,-1057.10,0.37,3.08,-6.90,1242,1241,1250,1255
37328,1351,1014,17175,-58.26,30.33,-60.92,279.18,321.46,1471.28,-20.39,-22.45,-1110.62,-14.79,-5.64,-1057.10,1.02,2.53,-7.11,1242,1241,1251,1254
37335,654,-2161,20146,104.28,130.89,-30.86,279.18,321.46,1471.28,-19.95,-22.98,-1110.73,-14.79,-5.64,-1057.10,0.64,2.88,-7.11,1242,1241,1250,1255
37357,-49,409,14717,-29.53,65.18,-31.66,279.18,319.84,1471.28,-17.98,-19.32,-1110.88,-14.74,-5.60,-1057.10,-0.97,-0.44,-6.93,1244,1245,1256,1255
37363,563,-2178,16343,20.48,97.90,-27.67,279.18,319.84,1471.28,-17.72,-20.38,-1110.98,-14.74,-5.60,-1057.10,-1.00,0.64,-6.95,1244,1245,1255,1256
37370,1129,840,12075,-57.20,72.36,-9.05,277.60,318.22,1471.28,-18.30,-19.89,-1110.99,-14.74,-5.60,-1057.10,-0.36,0.42,-6.89,1244,1245,1255,1256
37377,-152,894,17240,-16.76,133.02,-25.81,277.60,318.22,1471.28,-17.29,-18.74,-1111.06,-14.74,-5.60,-1057.10,-1.04,-0.31,-6.89,1244,1246,1256,1255
37384,1072,-1488,18396,1.86,117.32,-40.70,277.60,318.22,1473.22,-17.36,-19.81,-1111.25,-14.74,-5.60,-1057.10,-0.80,0.79,-6.98,1244,1245,1255,1256
37390,-393,-418,11469,-14.37,56.13,-17.03,277.60,318.22,1473.22,-16.09,-20.71,-1111.16,-14.74,-5.60,-1057.10,-1.64,1.60,-6.85,1244,1246,1254,1257
37411,830,-413,16703,-18.89,77.68,-42.83,282.33,316.60,1473.22,-18.48,-22.35,-1111.55,-14.68,-5.57,-1057.10,1.07,3.02,-7.01,1249,1248,1257,1262
