timestamp,accelX,accelY,accelZ,gyroX,gyroY,gyroZ,magX,magY,magZ,roll,pitch,yaw,rollLevel,pitchLevel,yawLevel,rollPid,pitchPid,yawPid,output0,output1,output2,output3
8810,325,-60,15490,-17.03,88.32,-33.79,239.75,314.98,1354.43,-22.64,-6.63,-996.63,-23.60,-7.01,-996.38,-6.16,-2.40,-1.56,1111,1111,1111,1111
8816,328,-25,15532,-17.82,89.65,-34.58,239.75,314.98,1354.43,-21.88,-6.06,-996.86,-23.60,-7.01,-996.38,-4.95,-3.66,-1.52,1111,1111,1111,1111
8823,342,-71,15481,-18.62,88.32,-33.79,239.75,314.98,1354.43,-21.37,-5.96,-997.08,-23.60,-7.01,-996.38,-3.13,-0.73,-1.32,1111,1111,1111,1111
8828,288,-74,15460,-20.75,89.39,-34.32,239.75,314.98,1354.43,-20.53,-5.95,-997.26,-23.60,-7.01,-996.38,-5.95,-0.19,-1.29,1111,1111,1111,1111
8836,293,-95,15544,-19.15,89.39,-38.31,239.75,314.98,1354.43,-19.74,-6.20,-997.48,-23.54,-6.99,-996.38,-4.75,1.28,-1.32,1111,1111,1111,1111
8842,324,-94,15482,-16.49,88.32,-32.19,239.75,314.98,1354.43,-19.55,-6.37,-997.61,-23.54,-6.99,-996.38,-1.70,1.04,-1.05,1111,1111,1111,1111
8848,338,-88,15578,-17.29,89.12,-35.12,239.75,314.98,1354.43,-19.48,-6.48,-997.80,-23.54,-6.99,-996.38,-0.89,0.53,-1.19,1111,1111,1111,1111
8866,331,-93,15520,-18.89,90.45,-36.45,239.75,314.98,1354.43,-19.15,-6.91,-998.31,-23.54,-6.99,-996.38,-1.20,0.88,-1.29,1111,1111,1111,1111
8872,331,-78,15517,-17.56,91.78,-38.57,239.75,314.98,1354.43,-19.09,-6.85,-998.48,-23.54,-6.99,-996.38,-0.97,-0.42,-1.40,1111,1111,1111,1111
8880,292,-87,15489,-18.89,87.52,-39.64,239.75,313.36,1354.43,-18.72,-6.92,-998.67,-23.54,-6.99,-996.38,-2.66,0.39,-1.30,1111,1111,1111,1111
8886,317,-105,15506,-21.02,89.39,-34.85,239.75,313.36,1354.43,-18.67,-7.18,-998.80,-23.47,-6.98,-996.38,-0.88,1.62,-1.12,1111,1111,1111,1111
8892,294,-49,15482,-15.16,92.05,-33.52,239.75,313.36,1354.43,-18.38,-6.81,-998.94,-23.47,-6.98,-996.38,-2.35,-2.27,-1.16,1111,1111,1111,1111
8898,277,-65,15490,-16.49,88.59,-35.12,239.75,313.36,1354.43,-18.06,-6.67,-999.07,-23.47,-6.98,-996.38,-2.76,-0.91,-1.11,1111,1111,1111,1111
8916,316,-89,15491,-18.89,90.72,-35.91,239.75,313.36,1354.43,-18.23,-7.16,-999.47,-23.47,-6.98,-996.38,-0.28,0.99,-1.18,1111,1111,1111,1111
8923,290,-63,15540,-17.82,89.39,-35.65,239.75,313.36,1354.43,-18.03,-6.97,-999.60,-23.47,-6.98,-996.38,-1.92,-1.22,-1.21,1111,1111,1111,1111
8930,331,-116,15551,-18.36,88.85,-35.65,239.75,313.36,1354.43,-18.19,-7.34,-999.74,-23.47,-6.98,-996.38,0.26,2.15,-1.22,1111,1111,1111,1111
8935,341,-100,15507,-18.09,91.25,-34.05,239.75,313.36,1354.43,-18.36,-7.48,-999.87,-23.47,-6.98,-996.38,0.50,0.94,-1.24,1111,1111,1111,1111
8942,323,-66,15560,-18.89,88.06,-36.45,239.75,314.98,1354.43,-18.37,-7.24,-1000.05,-23.41,-6.97,-996.38,-0.59,-1.27,-1.45,1111,1111,1111,1111
8948,349,-78,15582,-20.48,88.32,-36.45,239.75,314.98,1354.43,-18.54,-7.20,-1000.21,-23.41,-6.97,-996.38,0.55,-0.22,-1.46,1111,1111,1111,1111
8966,340,-68,15532,-18.09,91.78,-38.04,239.75,314.98,1354.43,-18.80,-6.79,-1000.71,-23.41,-6.97,-996.38,0.01,-0.90,-1.59,1111,1111,1111,1111
8972,367,-99,15517,-19.42,86.73,-38.31,239.75,314.98,1354.43,-19.06,-6.97,-1000.87,-23.41,-6.97,-996.38,1.11,1.17,-1.60,1111,1111,1111,1111
8978,339,-93,15510,-17.29,89.65,-35.65,242.90,314.98,1354.43,-19.21,-7.15,-1001.00,-23.41,-6.97,-996.38,0.36,1.05,-1.28,1111,1111,1111,1111
8984,299,-114,15494,-18.09,89.92,-37.78,242.90,314.98,1354.43,-19.02,-7.49,-1001.11,-23.41,-6.97,-996.38,-1.78,2.27,-1.29,1111,1111,1111,1111
8991,331,-105,15514,-17.82,90.98,-35.38,239.75,314.98,1354.43,-19.00,-7.63,-1001.28,-23.41,-6.97,-996.38,-0.61,0.89,-1.53,1111,1111,1111,1111
8997,308,-70,15508,-17.82,91.78,-35.91,239.75,314.98,1354.43,-18.77,-7.39,-1001.44,-23.34,-6.96,-996.38,-1.93,-1.38,-1.59,1111,1111,1111,1111
9017,310,-111,15543,-17.29,88.59,-35.91,242.90,314.98,1354.43,-18.69,-8.29,-1001.76,-23.34,-6.96,-996.38,-0.73,1.93,-1.29,1111,1111,1111,1111
9022,288,-90,15473,-19.15,89.92,-35.91,242.90,314.98,1354.43,-18.48,-8.23,-1001.87,-23.34,-6.96,-996.38,-1.94,-0.19,-1.34,1111,1111,1111,1111
9029,317,-64,15536,-19.69,91.78,-34.32,239.75,314.98,1354.43,-18.38,-7.88,-1002.03,-23.34,-6.96,-996.38,-1.12,-1.88,-1.62,1111,1111,1111,1111
9035,323,-59,15476,-20.22,88.59,-38.84,239.75,314.98,1354.43,-18.40,-7.60,-1002.20,-23.34,-6.96,-996.38,-0.50,-1.72,-1.78,1111,1111,1111,1111
9041,350,-96,15499,-19.15,89.65,-39.90,239.75,313.36,1354.43,-18.65,-7.71,-1002.38,-23.34,-6.96,-996.38,0.88,0.67,-1.74,1111,1111,1111,1111
9048,285,-120,15485,-16.76,91.52,-35.12,239.75,313.36,1354.43,-18.35,-8.01,-1002.50,-23.28,-6.94,-996.38,-2.46,1.98,-1.44,1111,1111,1111,1111
9066,316,-82,15524,-18.09,90.45,-36.71,239.75,314.98,1354.43,-18.28,-7.61,-1002.96,-23.28,-6.94,-996.38,-0.75,-0.74,-1.73,1111,1111,1111,1111
9072,291,-53,15521,-15.96,89.12,-37.78,239.75,314.98,1354.43,-18.08,-7.27,-1003.11,-23.28,-6.94,-996.38,-1.92,-2.14,-1.75,1111,1111,1111,1111
9079,349,-59,15497,-16.49,90.72,-38.84,239.75,314.98,1354.43,-18.32,-7.09,-1003.28,-23.28,-6.94,-996.38,0.80,-1.04,-1.85,1111,1111,1111,1111
9084,304,-68,15522,-14.10,88.85,-35.65,239.75,314.98,1354.43,-18.26,-6.96,-1003.40,-23.28,-6.94,-996.38,-1.00,-0.83,-1.63,1111,1111,1111,1111
9092,292,-98,15535,-19.95,87.52,-32.46,239.75,314.98,1354.43,-18.10,-7.20,-1003.51,-23.28,-6.94,-996.38,-1.48,1.39,-1.44,1111,1111,1111,1111
9098,345,-71,15506,-17.82,91.25,-35.12,239.75,314.98,1354.43,-18.32,-7.14,-1003.64,-23.21,-6.93,-996.38,0.75,-0.35,-1.71,1111,1111,1111,1111
9116,317,-90,15533,-20.48,90.98,-34.58,239.75,314.98,1354.43,-18.42,-7.49,-1004.01,-23.21,-6.93,-996.38,-0.39,0.76,-1.65,1111,1111,1111,1111
9122,338,-120,15526,-18.09,90.45,-32.99,239.75,314.98,1354.43,-18.55,-7.77,-1004.12,-23.21,-6.93,-996.38,0.33,1.98,-1.65,1111,1111,1111,1111
9129,296,-86,15500,-18.09,93.11,-37.51,239.75,314.98,1354.43,-18.33,-7.71,-1004.28,-23.21,-6.93,-996.38,-1.83,-0.26,-1.82,1111,1111,1111,1111
9135,336,-62,15486,-17.29,86.46,-35.65,239.75,314.98,1354.43,-18.48,-7.50,-1004.41,-23.21,-6.93,-996.38,0.40,-1.28,-1.85,1111,1111,1111,1111
9142,335,-92,15495,-20.75,90.72,-37.24,239.75,314.98,1354.43,-18.63,-7.59,-1004.57,-23.21,-6.93,-996.38,0.28,0.57,-1.87,1111,1111,1111,1111
9148,280,-48,15552,-19.15,89.92,-36.18,239.75,314.98,1354.43,-18.27,-7.21,-1004.71,-23.15,-6.92,-996.38,-2.83,-2.32,-1.86,1111,1111,1111,1111
9166,294,-90,15538,-15.43,89.39,-36.18,239.75,314.98,1354.43,-17.90,-7.45,-1005.06,-23.15,-6.92,-996.38,-1.37,0.56,-1.75,1111,1111,1111,1111
9172,256,-73,15499,-17.56,92.31,-32.99,239.75,314.98,1354.43,-17.49,-7.35,-1005.14,-23.15,-6.92,-996.38,-3.36,-0.64,-1.59,1111,1111,1111,1111
9179,283,-121,15549,-16.76,92.85,-35.38,239.75,314.98,1354.43,-17.37,-7.77,-1005.24,-23.15,-6.92,-996.38,-1.38,2.53,-1.66,1111,1111,1111,1111
9185,305,-69,15500,-17.56,88.59,-34.58,239.75,314.98,1354.43,-17.46,-7.63,-1005.35,-23.15,-6.92,-996.38,-0.09,-0.81,-1.76,1111,1111,1111,1111
9192,280,-77,15535,-16.76,89.92,-35.65,239.75,314.98,1354.43,-17.35,-7.54,-1005.46,-23.15,-6.92,-996.38,-1.35,-0.41,-1.73,1111,1111,1111,1111
9197,342,-94,15528,-20.48,90.72,-34.32,239.75,314.98,1354.43,-17.62,-7.67,-1005.57,-23.15,-6.92,-996.38,1.14,0.90,-1.82,1111,1111,1111,1111
9204,351,-69,15492,-16.23,88.32,-36.98,239.75,314.98,1354.43,-17.98,-7.55,-1005.74,-23.08,-6.90,-996.38,1.30,-0.57,-2.01,1111,1111,1111,1111
9224,310,-101,15528,-17.82,88.85,-35.91,239.75,314.98,1354.43,-18.17,-8.05,-1006.09,-23.08,-6.90,-996.38,-0.21,1.14,-1.87,1111,1111,1111,1111
9229,302,-108,15558,-21.28,90.19,-36.71,239.75,314.98,1354.43,-18.12,-8.21,-1006.20,-23.08,-6.90,-996.38,-0.89,1.17,-1.92,1111,1111,1111,1111
9236,348,-84,15556,-18.09,90.98,-36.71,239.75,314.98,1354.43,-18.37,-8.13,-1006.36,-23.08,-6.90,-996.38,0.86,-0.30,-2.09,1111,1111,1111,1111
9242,317,-106,15516,-17.29,88.85,-38.57,239.75,314.98,1354.43,-18.42,-8.23,-1006.49,-23.08,-6.90,-996.38,-0.25,0.82,-2.08,1111,1111,1111,1111
9248,312,-107,15505,-15.96,87.79,-38.31,239.75,314.98,1354.43,-18.44,-8.33,-1006.64,-23.08,-6.90,-996.38,-0.48,0.73,-2.08,1111,1111,1111,1111
9254,362,-66,15521,-19.15,85.40,-34.05,239.75,314.98,1354.43,-18.72,-8.12,-1006.78,-23.02,-6.89,-996.38,1.22,-1.15,-2.11,1111,1111,1111,1111
9275,333,-90,15511,-18.62,89.65,-34.58,239.75,314.98,1354.43,-19.07,-8.01,-1007.20,-23.02,-6.89,-996.38,0.18,-0.07,-2.07,1111,1111,1111,1111
9281,268,-69,15525,-16.76,90.72,-35.12,239.75,314.98,1354.43,-18.56,-7.75,-1007.31,-23.02,-6.89,-996.38,-3.84,-1.57,-2.06,1111,1111,1111,1111
9287,341,-22,15515,-16.23,88.32,-31.92,239.75,314.98,1354.43,-18.68,-7.23,-1007.45,-23.02,-6.89,-996.38,0.18,-2.93,-2.10,1111,1111,1111,1111
9293,275,-82,15505,-17.82,90.45,-34.85,239.75,314.98,1354.43,-18.36,-7.25,-1007.54,-23.02,-6.89,-996.38,-2.66,0.21,-1.91,1111,1111,1111,1111
9300,314,-127,15582,-17.29,89.65,-33.52,239.75,314.98,1354.43,-18.39,-7.72,-1007.64,-23.02,-6.89,-996.38,-0.38,2.82,-1.91,1111,1111,1111,1111
9307,336,-106,15543,-19.15,88.85,-33.25,239.75,314.98,1354.43,-18.58,-7.91,-1007.74,-22.95,-6.88,-996.38,0.62,1.29,-2.01,1111,1111,1111,1111
9327,304,-88,15533,-17.56,88.59,-36.45,239.75,314.98,1354.43,-18.37,-7.83,-1008.14,-22.95,-6.88,-996.38,-0.92,-0.03,-2.13,1111,1111,1111,1111
9333,291,-117,15542,-17.03,90.98,-37.24,239.75,314.98,1354.43,-18.23,-8.10,-1008.25,-22.95,-6.88,-996.38,-1.46,1.91,-2.09,1111,1111,1111,1111
9340,322,-78,15566,-18.89,88.85,-35.65,239.75,314.98,1354.43,-18.35,-7.98,-1008.38,-22.95,-6.88,-996.38,0.13,-0.53,-2.17,1111,1111,1111,1111
9346,281,-66,15500,-19.15,90.72,-36.45,239.75,314.98,1354.43,-18.13,-7.76,-1008.48,-22.95,-6.88,-996.38,-2.02,-1.32,-2.15,1111,1111,1111,1111
9353,285,-99,15531,-19.69,88.32,-36.45,241.32,314.98,1354.43,-18.05,-7.96,-1008.57,-22.95,-6.88,-996.38,-1.02,1.28,-1.93,1111,1111,1111,1111
9359,301,-64,15558,-16.76,88.59,-36.45,241.32,314.98,1354.43,-18.10,-7.77,-1008.66,-22.89,-6.86,-996.38,-0.32,-1.06,-2.07,1111,1111,1111,1111
9379,301,-91,15475,-17.29,89.39,-35.65,241.32,314.98,1354.43,-18.31,-8.09,-1008.93,-22.89,-6.86,-996.38,-0.15,0.74,-2.01,1111,1111,1111,1111
9385,333,-71,15498,-18.09,90.98,-32.46,241.32,314.98,1354.43,-18.50,-7.98,-1009.01,-22.89,-6.86,-996.38,0.71,-0.57,-2.05,1111,1111,1111,1111
9392,297,-104,15498,-17.56,89.39,-33.79,241.32,314.98,1354.43,-18.46,-8.17,-1009.09,-22.89,-6.86,-996.38,-0.74,1.26,-1.95,1111,1111,1111,1111
9398,298,-75,15513,-18.89,90.45,-34.85,241.32,314.98,1354.43,-18.42,-8.05,-1009.17,-22.89,-6.86,-996.38,-0.79,-0.64,-2.06,1111,1111,1111,1111
9404,319,-96,15568,-20.48,88.06,-37.78,241.32,314.98,1354.43,-18.57,-8.17,-1009.28,-22.89,-6.86,-996.38,0.31,0.81,-2.20,1111,1111,1111,1111
9411,296,-50,15486,-18.09,91.52,-38.31,241.32,314.98,1354.43,-18.47,-7.81,-1009.40,-22.82,-6.86,-996.38,-1.14,-2.06,-2.28,1111,1111,1111,1111
9432,296,-93,15520,-19.15,90.45,-36.18,241.32,314.98,1354.43,-18.35,-8.20,-1009.68,-22.82,-6.86,-996.38,-0.75,0.86,-2.09,1111,1111,1111,1111
9438,320,-102,15515,-17.29,90.72,-36.98,241.32,314.98,1354.43,-18.48,-8.32,-1009.77,-22.82,-6.86,-996.38,0.36,0.96,-2.22,1111,1111,1111,1111
9444,295,-132,15559,-20.22,88.32,-35.38,242.90,314.98,1354.43,-18.47,-8.79,-1009.84,-22.82,-6.86,-996.38,-0.63,2.95,-1.98,1111,1111,1111,1111
9450,293,-145,15509,-17.82,89.12,-37.78,242.90,314.98,1354.43,-18.42,-9.24,-1009.91,-22.82,-6.86,-996.38,-0.80,3.20,-2.11,1111,1111,1111,1111
9457,322,-79,15541,-15.16,91.52,-35.12,241.32,314.98,1354.43,-18.52,-8.98,-1010.03,-22.82,-6.86,-996.38,0.06,-1.26,-2.30,1111,1111,1111,1111
9463,357,-76,15493,-18.36,90.45,-33.79,241.32,314.98,1354.43,-18.80,-8.81,-1010.14,-22.76,-6.85,-996.38,1.24,-0.81,-2.35,1111,1111,1111,1111
9484,309,-107,15522,-18.89,88.59,-34.58,242.90,314.98,1354.43,-18.98,-9.18,-1010.37,-22.76,-6.85,-996.38,-0.12,0.97,-2.09,1111,1111,1111,1111
9489,291,-92,15509,-21.55,88.32,-34.58,242.90,314.98,1354.43,-18.86,-9.09,-1010.43,-22.76,-6.85,-996.38,-1.28,-0.30,-2.11,1111,1111,1111,1111
9496,300,-106,15550,-19.95,90.72,-34.85,241.32,314.98,1354.43,-18.75,-9.11,-1010.53,-22.76,-6.85,-996.38,-1.08,0.39,-2.23,1111,1111,1111,1111
9501,336,-113,15524,-16.23,92.05,-35.12,241.32,314.98,1354.43,-18.91,-9.18,-1010.62,-22.76,-6.85,-996.38,0.57,0.73,-2.35,1111,1111,1111,1111
9508,349,-71,15532,-16.49,90.45,-37.24,246.06,314.98,1354.43,-19.23,-9.00,-1010.72,-22.76,-6.85,-996.38,1.39,-0.77,-2.28,1111,1111,1111,1111
9515,315,-90,15465,-14.90,88.85,-37.78,246.06,314.98,1354.43,-19.36,-8.97,-1010.78,-22.71,-6.84,-996.38,0.39,0.05,-2.12,1111,1111,1111,1111
9536,300,-63,15540,-18.36,90.19,-36.98,242.90,314.98,1354.43,-18.85,-7.78,-1011.12,-22.71,-6.84,-996.38,-1.37,-2.03,-2.38,1111,1111,1111,1111
9541,338,-78,15516,-20.22,86.99,-34.32,242.90,314.98,1354.43,-19.10,-7.81,-1011.19,-22.71,-6.84,-996.38,1.18,0.35,-2.23,1111,1111,1111,1111
9548,295,-125,15528,-20.48,88.06,-35.12,242.90,314.98,1354.43,-19.02,-8.31,-1011.25,-22.71,-6.84,-996.38,-0.93,3.05,-2.09,1111,1111,1111,1111
9554,317,-94,15530,-17.56,86.99,-37.24,242.90,314.98,1354.43,-19.13,-8.38,-1011.32,-22.71,-6.84,-996.38,0.27,0.60,-2.29,1111,1111,1111,1111
9561,347,-102,15489,-19.15,90.19,-35.91,242.90,314.98,1354.43,-19.40,-8.53,-1011.42,-22.71,-6.84,-996.38,1.16,1.05,-2.37,1111,1111,1111,1111
9567,356,-91,15445,-17.03,90.72,-36.18,242.90,314.98,1354.43,-19.67,-8.54,-1011.53,-22.64,-6.83,-996.38,1.28,0.27,-2.45,1111,1111,1111,1111
9574,336,-107,15555,-14.37,90.98,-36.71,246.06,314.98,1354.43,-19.88,-8.73,-1011.59,-22.64,-6.83,-996.38,0.85,1.33,-2.19,1111,1111,1111,1111
9594,319,-86,15482,-18.36,90.45,-36.98,242.90,314.98,1354.43,-19.78,-8.40,-1011.90,-22.64,-6.83,-996.38,-0.52,-0.43,-2.44,1111,1111,1111,1111
9601,318,-81,15526,-17.82,91.25,-36.18,242.90,314.98,1354.43,-19.77,-8.31,-1011.98,-22.64,-6.83,-996.38,-0.46,-0.38,-2.37,1111,1111,1111,1111
9607,328,-90,15585,-19.15,88.85,-35.65,242.90,314.98,1354.43,-19.84,-8.34,-1012.06,-22.64,-6.83,-996.38,0.10,0.30,-2.37,1111,1111,1111,1111
9613,334,-67,15516,-17.82,92.58,-39.11,242.90,314.98,1354.43,-19.91,-8.15,-1012.17,-22.64,-6.83,-996.38,0.11,-1.02,-2.59,1111,1111,1111,1111
9620,318,-102,15471,-18.89,87.52,-36.71,246.06,314.98,1354.43,-20.02,-8.42,-1012.22,-22.59,-6.81,-996.38,0.30,1.64,-2.15,1111,1111,1111,1111
9625,297,-31,15526,-16.23,88.85,-37.24,246.06,314.98,1354.43,-19.87,-7.96,-1012.28,-22.59,-6.81,-996.38,-1.29,-2.86,-2.32,1111,1111,1111,1111
9647,314,-81,15547,-17.03,89.92,-34.05,246.06,314.98,1356.38,-20.08,-8.14,-1012.35,-22.59,-6.81,-996.38,0.06,0.49,-2.05,1111,1111,1111,1111
9653,280,-78,15536,-19.69,90.98,-35.12,246.06,314.98,1356.38,-19.80,-8.13,-1012.36,-22.59,-6.81,-996.38,-2.11,0.10,-1.98,1111,1111,1111,1111
9659,321,-75,15546,-19.15,86.99,-34.58,246.06,314.98,1356.38,-19.93,-8.12,-1012.40,-22.59,-6.81,-996.38,0.48,0.08,-2.13,1111,1111,1111,1111
9665,360,-79,15517,-18.09,88.59,-35.38,246.06,314.98,1356.38,-20.23,-8.15,-1012.46,-22.59,-6.81,-996.38,1.64,0.35,-2.34,1111,1111,1111,1111
9672,358,-49,15565,-16.23,88.32,-33.25,246.06,314.98,1356.38,-20.52,-7.88,-1012.53,-22.52,-6.80,-996.38,1.28,-1.30,-2.32,1111,1111,1111,1111
9678,335,-82,15556,-15.43,92.05,-36.98,246.06,314.98,1356.38,-20.61,-7.93,-1012.59,-22.52,-6.80,-996.38,0.40,0.44,-2.28,1111,1111,1111,1111
9699,304,-104,15564,-17.29,90.72,-37.78,242.90,314.98,1356.38,-19.71,-8.57,-1012.84,-22.52,-6.80,-996.38,-2.02,1.40,-2.45,1111,1111,1111,1111
9704,325,-117,15563,-18.62,92.31,-40.70,242.90,314.98,1356.38,-19.75,-8.80,-1012.94,-22.52,-6.80,-996.38,-0.07,1.70,-2.62,1111,1111,1111,1111
9711,305,-94,15494,-19.42,90.19,-37.78,246.06,314.98,1356.38,-19.75,-8.87,-1012.99,-22.52,-6.80,-996.38,-0.30,0.64,-2.25,1111,1111,1111,1111
9717,288,-108,15562,-18.36,89.65,-36.18,246.06,314.98,1356.38,-19.61,-9.04,-1013.00,-22.52,-6.80,-996.38,-1.29,1.40,-2.11,1111,1111,1111,1111
9724,274,-106,15544,-17.56,90.98,-36.98,239.75,314.98,1356.38,-19.01,-9.00,-1013.13,-22.46,-6.79,-996.38,-3.64,0.05,-2.69,1111,1111,1111,1111
9730,323,-80,15520,-19.95,88.59,-33.52,239.75,314.98,1356.38,-19.05,-8.81,-1013.23,-22.46,-6.79,-996.38,-0.12,-1.02,-2.65,1111,1111,1111,1111
9751,326,-97,15500,-17.56,90.72,-35.38,246.06,314.98,1356.38,-19.84,-9.17,-1013.37,-22.46,-6.79,-996.38,1.09,0.94,-2.30,1111,1111,1111,1111
9757,275,-88,15438,-18.62,91.52,-35.38,246.06,314.98,1356.38,-19.56,-9.10,-1013.39,-22.46,-6.79,-996.38,-2.14,-0.19,-2.14,1111,1111,1111,1111
9763,311,-69,15483,-19.95,89.39,-34.32,238.17,314.98,1356.38,-19.34,-8.69,-1013.53,-22.46,-6.79,-996.38,-1.63,-2.13,-2.89,1111,1111,1111,1111
9769,314,-68,15521,-16.76,87.26,-36.18,238.17,314.98,1356.38,-19.24,-8.37,-1013.66,-22.46,-6.79,-996.38,-1.08,-1.90,-2.91,1111,1111,1111,1111
9777,322,-45,15502,-15.43,89.65,-36.18,242.90,314.98,1356.38,-19.33,-7.97,-1013.76,-22.39,-6.79,-996.38,0.17,-2.04,-2.62,1111,1111,1111,1111
9782,314,-111,15481,-18.62,85.93,-33.52,242.90,314.98,1356.38,-19.42,-8.26,-1013.80,-22.39,-6.79,-996.38,0.22,2.07,-2.35,1111,1111,1111,1111
9803,295,-88,15479,-17.29,88.85,-36.71,242.90,314.98,1356.38,-19.13,-8.35,-1013.98,-22.39,-6.79,-996.38,-0.93,0.35,-2.45,1111,1111,1111,1111
9808,312,-87,15475,-17.03,91.25,-36.45,242.90,314.98,1356.38,-19.20,-8.37,-1014.04,-22.39,-6.79,-996.38,0.10,0.30,-2.51,1111,1111,1111,1111
9816,312,-102,15534,-18.89,88.32,-35.12,242.90,314.98,1354.43,-19.29,-8.55,-1014.10,-22.39,-6.79,-996.38,0.11,1.23,-2.44,1111,1111,1111,1111
9821,298,-76,15483,-16.76,89.65,-34.32,242.90,314.98,1354.43,-19.24,-8.42,-1014.14,-22.39,-6.79,-996.38,-0.71,-0.62,-2.43,1111,1111,1111,1111
9828,316,-95,15516,-19.15,86.99,-36.45,238.17,314.98,1354.43,-19.20,-8.39,-1014.28,-22.33,-6.77,-996.38,-0.57,0.06,-2.88,1111,1111,1111,1111
9834,309,-119,15503,-17.03,89.12,-36.45,238.17,314.98,1354.43,-19.11,-8.59,-1014.38,-22.33,-6.77,-996.38,-0.95,1.50,-2.84,1111,1111,1111,1111
9856,336,-81,15503,-16.76,89.65,-34.58,242.90,314.98,1354.43,-19.87,-8.40,-1014.62,-22.33,-6.77,-996.38,1.07,-0.16,-2.62,1111,1111,1111,1111
9861,277,-126,15438,-15.43,88.59,-34.85,242.90,314.98,1354.43,-19.55,-8.77,-1014.66,-22.33,-6.77,-996.38,-2.42,2.62,-2.41,1111,1111,1111,1111
9868,296,-88,15440,-17.56,89.92,-34.85,242.90,314.98,1354.43,-19.44,-8.71,-1014.71,-22.33,-6.77,-996.38,-0.99,-0.09,-2.50,1111,1111,1111,1111
9874,270,-121,15516,-18.09,89.39,-36.98,242.90,314.98,1354.43,-19.11,-9.00,-1014.75,-22.33,-6.77,-996.38,-2.50,2.15,-2.46,1111,1111,1111,1111
9880,328,-72,15616,-14.90,90.45,-36.45,242.90,314.98,1354.43,-19.27,-8.76,-1014.84,-22.26,-6.76,-996.38,0.52,-1.07,-2.72,1111,1111,1111,1111
9886,374,-48,15525,-19.69,88.59,-35.12,242.90,314.98,1354.43,-19.59,-8.51,-1014.94,-22.26,-6.76,-996.38,1.71,-1.40,-2.88,1111,1111,1111,1111
9908,320,-73,15528,-17.82,90.98,-36.71,242.90,314.98,1356.38,-19.79,-8.04,-1015.19,-22.26,-6.76,-996.38,0.07,-0.71,-2.71,1111,1111,1111,1111
9913,335,-94,15550,-19.69,91.25,-37.51,242.90,314.98,1356.38,-19.93,-8.17,-1015.26,-22.26,-6.76,-996.38,0.64,1.02,-2.73,1111,1111,1111,1111
9920,386,-120,15492,-19.95,89.12,-36.45,242.90,314.98,1356.38,-20.33,-8.50,-1015.37,-22.26,-6.76,-996.38,2.02,2.08,-2.91,1111,1111,1111,1111
9925,300,-89,15515,-19.69,92.58,-32.19,242.90,314.98,1356.38,-20.12,-8.49,-1015.40,-22.26,-6.76,-996.38,-1.65,0.14,-2.49,1111,1111,1111,1111
9932,279,-76,15542,-17.29,88.85,-34.58,242.90,314.98,1356.38,-19.69,-8.31,-1015.45,-22.20,-6.75,-996.38,-2.64,-0.80,-2.55,1111,1111,1111,1111
9938,368,-73,15568,-16.23,87.26,-35.65,242.90,314.98,1356.38,-20.00,-8.23,-1015.54,-22.20,-6.75,-996.38,1.76,-0.31,-2.87,1111,1111,1111,1111
9946,326,-96,15540,-17.03,89.39,-32.99,242.90,314.98,1354.43,-20.08,-8.35,-1015.59,-22.20,-6.75,-996.38,0.21,0.86,-2.57,1111,1111,1111,1111
9966,307,-100,15524,-18.09,89.92,-35.12,242.90,314.98,1356.38,-19.78,-8.80,-1015.74,-22.20,-6.75,-996.38,-0.84,1.06,-2.60,1111,1111,1111,1111
9972,330,-79,15522,-18.89,89.92,-37.51,242.90,314.98,1356.38,-19.88,-8.69,-1015.82,-22.20,-6.75,-996.38,0.41,-0.48,-2.85,1111,1111,1111,1111
9978,277,-67,15528,-16.49,89.92,-38.04,238.17,314.98,1356.38,-19.30,-8.29,-1015.97,-22.20,-6.75,-996.38,-3.69,-2.13,-3.20,1111,1111,1111,1111
9985,339,-76,15542,-18.62,93.64,-35.38,238.17,314.98,1356.38,-19.40,-8.14,-1016.09,-22.13,-6.73,-996.38,0.24,-0.72,-3.09,1111,1111,1111,1111
9992,327,-136,15508,-19.15,91.25,-35.91,236.59,316.60,1354.43,-19.34,-8.54,-1016.23,-22.13,-6.73,-996.38,-0.69,2.49,-3.20,1111,1111,1111,1111
9998,351,-96,15448,-20.22,90.19,-35.65,236.59,316.60,1354.43,-19.46,-8.50,-1016.37,-22.13,-6.73,-996.38,0.48,-0.05,-3.31,1111,1111,1111,1111
10017,319,-105,15497,-16.76,90.19,-35.38,236.59,316.60,1356.38,-19.07,-8.50,-1016.81,-22.13,-6.73,-996.38,-1.11,0.22,-3.29,1111,1111,1111,1111
10023,286,-108,15476,-17.03,89.12,-34.85,236.59,316.60,1356.38,-18.75,-8.55,-1016.92,-22.13,-6.73,-996.38,-2.48,0.51,-3.18,1111,1111,1111,1111
10030,300,-72,15569,-19.15,89.92,-34.58,239.75,316.60,1356.38,-18.68,-8.33,-1017.01,-22.13,-6.73,-996.38,-0.83,-1.07,-3.00,1111,1111,1111,1111
10036,280,-62,15478,-17.29,90.19,-34.85,239.75,316.60,1356.38,-18.47,-8.05,-1017.09,-22.07,-6.72,-996.38,-1.72,-1.57,-2.96,1111,1111,1111,1111
10043,326,-109,15540,-16.49,89.39,-36.45,239.75,316.60,1356.38,-18.65,-8.26,-1017.18,-22.07,-6.72,-996.38,0.71,1.50,-3.06,1111,1111,1111,1111
10048,317,-95,15481,-18.89,87.79,-35.38,239.75,316.60,1356.38,-18.77,-8.33,-1017.26,-22.07,-6.72,-996.38,0.36,0.64,-3.03,1111,1111,1111,1111
10070,325,-82,15498,-19.15,90.98,-36.98,239.75,316.60,1356.38,-19.21,-8.15,-1017.62,-22.07,-6.72,-996.38,0.45,-0.16,-3.18,1111,1111,1111,1111
10076,297,-93,15494,-19.15,90.98,-37.24,239.75,316.60,1356.38,-19.08,-8.20,-1017.70,-22.07,-6.72,-996.38,-1.16,0.51,-3.09,1111,1111,1111,1111
10082,314,-113,15509,-17.29,91.78,-36.45,239.75,316.60,1356.38,-19.10,-8.45,-1017.79,-22.07,-6.72,-996.38,-0.25,1.63,-3.10,1111,1111,1111,1111
10088,308,-101,15499,-15.70,91.52,-37.51,239.75,316.60,1356.38,-19.07,-8.52,-1017.89,-22.00,-6.71,-996.38,-0.54,0.62,-3.16,1111,1111,1111,1111
10095,342,-64,15534,-18.62,88.85,-33.79,241.32,316.60,1356.38,-19.31,-8.31,-1017.98,-22.00,-6.71,-996.38,1.02,-0.96,-3.11,1111,1111,1111,1111
10100,337,-96,15501,-18.89,89.92,-33.25,241.32,316.60,1356.38,-19.49,-8.40,-1018.04,-22.00,-6.71,-996.38,0.87,0.79,-3.01,1111,1111,1111,1111
10121,291,-90,15544,-18.09,90.72,-34.58,242.90,316.60,1356.38,-19.06,-8.54,-1018.14,-22.00,-6.71,-996.38,-1.16,0.48,-2.80,1111,1111,1111,1111
10127,290,-96,15558,-18.36,88.32,-36.98,242.90,316.60,1356.38,-19.01,-8.63,-1018.18,-22.00,-6.71,-996.38,-0.68,0.82,-2.88,1111,1111,1111,1111
10133,313,-64,15528,-17.03,88.59,-37.24,241.32,316.60,1356.38,-19.08,-8.36,-1018.28,-22.00,-6.71,-996.38,0.01,-1.30,-3.17,1111,1111,1111,1111
10139,302,-56,15529,-17.56,88.32,-36.18,241.32,316.60,1356.38,-19.05,-8.08,-1018.35,-21.95,-6.70,-996.38,-0.50,-1.58,-3.10,1111,1111,1111,1111
10146,325,-68,15532,-17.82,88.06,-36.71,241.32,316.60,1356.38,-19.22,-7.96,-1018.44,-21.95,-6.70,-996.38,0.66,-0.52,-3.15,1111,1111,1111,1111
10151,304,-114,15452,-19.15,88.59,-34.32,241.32,316.60,1356.38,-19.23,-8.27,-1018.48,-21.95,-6.70,-996.38,-0.29,2.26,-2.94,1111,1111,1111,1111
10173,292,-97,15529,-20.22,89.92,-36.45,242.90,314.98,1356.38,-19.16,-8.91,-1018.56,-21.95,-6.70,-996.38,-0.47,1.42,-2.81,1111,1111,1111,1111
10179,305,-88,15493,-16.76,90.19,-34.05,242.90,314.98,1356.38,-19.23,-8.89,-1018.59,-21.95,-6.70,-996.38,0.13,0.12,-2.84,1111,1111,1111,1111
10185,308,-62,15514,-17.56,88.85,-36.71,244.48,314.98,1356.38,-19.35,-8.66,-1018.63,-21.95,-6.70,-996.38,0.39,-1.06,-2.92,1111,1111,1111,1111
10191,287,-59,15604,-18.09,90.19,-38.31,244.48,314.98,1356.38,-19.28,-8.43,-1018.67,-21.89,-6.68,-996.38,-0.75,-1.23,-2.87,1111,1111,1111,1111
10199,312,-140,15530,-19.15,89.92,-34.32,244.48,314.98,1356.38,-19.40,-9.02,-1018.68,-21.89,-6.68,-996.38,0.37,3.66,-2.78,1111,1111,1111,1111
10204,342,-70,15545,-16.76,88.59,-35.38,244.48,314.98,1356.38,-19.66,-8.89,-1018.74,-21.89,-6.68,-996.38,1.44,-0.59,-3.03,1111,1111,1111,1111
10224,329,-70,15508,-17.29,89.12,-36.45,246.06,314.98,1356.38,-20.43,-8.55,-1018.86,-21.89,-6.68,-996.38,1.24,-0.41,-2.92,1111,1111,1111,1111
10230,307,-62,15520,-21.28,87.79,-37.51,246.06,314.98,1356.38,-20.43,-8.40,-1018.88,-21.89,-6.68,-996.38,-0.17,-0.75,-2.84,1111,1111,1111,1111
10237,292,-82,15556,-20.75,90.98,-36.98,246.06,314.98,1356.38,-20.28,-8.46,-1018.87,-21.89,-6.68,-996.38,-1.03,0.56,-2.67,1111,1111,1111,1111
10244,306,-106,15527,-18.09,89.92,-35.12,246.06,314.98,1356.38,-20.29,-8.74,-1018.87,-21.82,-6.67,-996.38,-0.11,1.95,-2.66,1111,1111,1111,1111
10250,290,-120,15504,-17.56,89.12,-36.18,244.48,314.98,1356.38,-20.09,-9.11,-1018.88,-21.82,-6.67,-996.38,-1.34,2.38,-2.76,1111,1111,1111,1111
10256,308,-60,15500,-15.70,92.85,-37.51,244.48,314.98,1356.38,-20.05,-8.81,-1018.93,-21.82,-6.67,-996.38,-0.49,-1.68,-3.03,1111,1111,1111,1111
10277,344,-59,15551,-18.36,89.92,-37.51,246.06,314.98,1356.38,-20.89,-8.21,-1019.12,-21.82,-6.67,-996.38,1.41,-0.90,-3.08,1111,1111,1111,1111
10284,268,-114,15497,-15.96,85.40,-35.38,246.06,314.98,1356.38,-20.48,-8.59,-1019.10,-21.82,-6.67,-996.38,-2.82,2.70,-2.57,1111,1111,1111,1111
10290,306,-106,15484,-17.82,89.92,-34.58,244.48,314.98,1356.38,-20.41,-8.82,-1019.11,-21.82,-6.67,-996.38,-0.55,1.59,-2.78,1111,1111,1111,1111
10296,338,-87,15590,-18.36,90.98,-35.65,244.48,314.98,1356.38,-20.56,-8.81,-1019.15,-21.76,-6.66,-996.38,0.78,0.23,-3.01,1111,1111,1111,1111
10303,339,-53,15596,-20.75,92.58,-36.45,244.48,314.98,1356.38,-20.66,-8.51,-1019.22,-21.76,-6.66,-996.38,0.44,-1.51,-3.14,1111,1111,1111,1111
10308,324,-31,15538,-18.09,91.52,-35.12,244.48,314.98,1356.38,-20.64,-8.09,-1019.28,-21.76,-6.66,-996.38,-0.28,-2.58,-3.10,1111,1111,1111,1111
10315,332,-56,15532,-20.75,90.19,-36.18,241.32,314.98,1356.38,-20.64,-7.83,-1019.37,-21.76,-6.66,-996.38,-0.12,-1.31,-3.26,1111,1111,1111,1111
10336,335,-75,15532,-17.03,90.98,-33.52,241.32,314.98,1356.38,-20.80,-7.69,-1019.55,-21.76,-6.66,-996.38,0.17,-0.14,-3.11,1111,1111,1111,1111
10342,267,-85,15450,-16.49,89.65,-38.84,241.32,314.98,1356.38,-20.22,-7.75,-1019.60,-21.76,-6.66,-996.38,-3.93,0.56,-3.14,1111,1111,1111,1111
10348,384,-104,15512,-18.89,90.45,-36.18,241.32,314.98,1356.38,-20.62,-8.02,-1019.71,-21.69,-6.64,-996.38,2.00,1.63,-3.38,1111,1111,1111,1111
10354,321,-138,15566,-17.03,89.92,-38.84,241.32,314.98,1356.38,-20.54,-8.52,-1019.78,-21.69,-6.64,-996.38,-0.65,3.43,-3.28,1111,1111,1111,1111
10361,258,-114,15482,-15.96,89.12,-38.31,241.32,314.98,1356.38,-19.81,-8.78,-1019.84,-21.69,-6.64,-996.38,-4.37,1.70,-3.16,1111,1111,1111,1111
10366,319,-105,15506,-18.62,90.98,-38.04,241.32,314.98,1356.38,-19.85,-8.89,-1019.91,-21.69,-6.64,-996.38,0.07,1.05,-3.26,1111,1111,1111,1111
10388,315,-101,15514,-18.89,89.92,-36.18,241.32,314.98,1356.38,-19.90,-9.13,-1020.11,-21.69,-6.64,-996.38,-0.12,0.72,-3.21,1111,1111,1111,1111
10394,328,-85,15543,-17.82,91.25,-34.58,241.32,314.98,1356.38,-19.97,-9.01,-1020.17,-21.69,-6.64,-996.38,0.25,-0.46,-3.25,1111,1111,1111,1111
10401,319,-88,15579,-17.29,88.32,-34.85,241.32,314.98,1356.38,-20.00,-8.91,-1020.23,-21.63,-6.63,-996.38,-0.07,-0.28,-3.22,1111,1111,1111,1111
10406,371,-43,15508,-18.09,92.05,-32.46,241.32,314.98,1356.38,-20.23,-8.58,-1020.32,-21.63,-6.63,-996.38,1.32,-1.90,-3.42,1111,1111,1111,1111
10414,372,-137,15488,-18.62,92.31,-37.51,241.32,314.98,1356.38,-20.52,-9.00,-1020.43,-21.63,-6.63,-996.38,1.52,2.67,-3.49,1111,1111,1111,1111
10420,312,-99,15498,-18.89,89.92,-36.71,241.32,314.98,1356.38,-20.41,-9.01,-1020.49,-21.63,-6.63,-996.38,-0.87,0.35,-3.29,1111,1111,1111,1111
10439,307,-100,15506,-17.29,90.98,-36.71,241.32,314.98,1356.38,-19.91,-9.05,-1020.69,-21.63,-6.63,-996.38,-1.12,0.36,-3.29,1111,1111,1111,1111
10445,311,-78,15500,-20.22,87.79,-36.45,241.32,314.98,1356.38,-19.90,-8.89,-1020.75,-21.63,-6.63,-996.38,-0.31,-0.74,-3.32,1111,1111,1111,1111
10452,293,-45,15476,-17.82,90.72,-36.18,241.32,314.98,1356.38,-19.66,-8.38,-1020.83,-21.58,-6.62,-996.38,-1.50,-2.58,-3.37,1111,1111,1111,1111
10459,280,-65,15553,-22.35,90.19,-36.45,241.32,314.98,1356.38,-19.43,-8.21,-1020.87,-21.58,-6.62,-996.38,-1.77,-0.90,-3.18,1111,1111,1111,1111
10465,330,-70,15496,-18.62,89.65,-38.57,241.32,314.98,1356.38,-19.64,-8.13,-1020.95,-21.58,-6.62,-996.38,0.96,-0.25,-3.43,1111,1111,1111,1111
10471,290,-124,15558,-17.82,89.92,-35.38,241.32,314.98,1356.38,-19.50,-8.54,-1020.97,-21.58,-6.62,-996.38,-1.13,2.94,-3.10,1111,1111,1111,1111
10492,308,-80,15522,-18.89,92.05,-35.38,241.32,314.98,1354.43,-19.58,-8.37,-1021.12,-21.58,-6.62,-996.38,-0.10,-0.09,-3.23,1111,1111,1111,1111
10498,312,-107,15574,-20.22,90.72,-34.85,241.32,314.98,1354.43,-19.63,-8.60,-1021.15,-21.58,-6.62,-996.38,0.06,1.72,-3.18,1111,1111,1111,1111
10505,285,-126,15486,-17.03,86.99,-33.79,241.32,314.98,1354.43,-19.44,-9.05,-1021.17,-21.52,-6.61,-996.38,-1.24,2.68,-3.06,1111,1111,1111,1111
10511,323,-112,15474,-20.22,87.79,-36.71,241.32,314.98,1354.43,-19.59,-9.22,-1021.22,-21.52,-6.61,-996.38,0.74,1.44,-3.35,1111,1111,1111,1111
10518,374,-103,15485,-18.09,89.65,-34.85,241.32,314.98,1354.43,-19.99,-9.30,-1021.32,-21.52,-6.61,-996.38,2.03,0.73,-3.52,1111,1111,1111,1111
10523,325,-118,15544,-18.09,91.25,-34.32,241.32,314.98,1354.43,-20.05,-9.46,-1021.36,-21.52,-6.61,-996.38,0.21,1.38,-3.30,1111,1111,1111,1111
10544,282,-77,15543,-19.15,89.65,-36.98,241.32,314.98,1354.43,-18.96,-8.56,-1021.56,-21.52,-6.61,-996.38,-2.32,-1.44,-3.39,1111,1111,1111,1111
10550,285,-98,15523,-18.36,90.19,-37.24,241.32,314.98,1354.43,-18.92,-8.69,-1021.59,-21.52,-6.61,-996.38,-0.59,1.13,-3.20,1111,1111,1111,1111
10557,282,-104,15513,-18.09,90.98,-37.51,239.75,314.98,1354.43,-18.78,-8.85,-1021.64,-21.47,-6.59,-996.38,-1.09,1.14,-3.32,1111,1111,1111,1111
10563,325,-71,15502,-18.62,89.92,-36.98,239.75,314.98,1354.43,-18.96,-8.70,-1021.72,-21.47,-6.59,-996.38,0.85,-0.72,-3.55,1111,1111,1111,1111
10569,322,-75,15534,-16.23,89.12,-34.85,238.17,314.98,1354.43,-19.08,-8.52,-1021.81,-21.47,-6.59,-996.38,0.44,-0.80,-3.55,1111,1111,1111,1111
10575,311,-67,15501,-21.55,90.98,-36.45,238.17,314.98,1354.43,-19.10,-8.34,-1021.89,-21.47,-6.59,-996.38,-0.15,-0.97,-3.59,1111,1111,1111,1111
10597,333,-79,15530,-17.56,89.65,-35.91,239.75,314.98,1354.43,-19.85,-8.24,-1022.13,-21.47,-6.59,-996.38,1.14,0.01,-3.53,1111,1111,1111,1111
10602,290,-38,15582,-19.42,93.11,-32.72,239.75,314.98,1354.43,-19.60,-7.84,-1022.18,-21.47,-6.59,-996.38,-1.85,-2.50,-3.41,1111,1111,1111,1111
10609,296,-53,15556,-18.36,87.52,-34.85,241.32,314.98,1354.43,-19.56,-7.61,-1022.21,-21.41,-6.58,-996.38,-0.45,-1.05,-3.25,1111,1111,1111,1111
10615,271,-72,15511,-18.89,90.19,-37.24,241.32,314.98,1354.43,-19.33,-7.65,-1022.22,-21.41,-6.58,-996.38,-1.76,0.33,-3.17,1111,1111,1111,1111
10621,327,-88,15522,-17.82,88.85,-32.72,239.75,314.98,1354.43,-19.53,-7.81,-1022.26,-21.41,-6.58,-996.38,0.92,1.07,-3.33,1111,1111,1111,1111
10628,313,-75,15448,-15.43,90.98,-36.71,239.75,314.98,1354.43,-19.59,-7.79,-1022.32,-21.41,-6.58,-996.38,0.17,0.06,-3.47,1111,1111,1111,1111
10648,329,-95,15515,-19.42,90.45,-36.71,241.32,314.98,1354.43,-20.22,-8.54,-1022.48,-21.41,-6.58,-996.38,1.02,1.61,-3.43,1111,1111,1111,1111
10654,341,-108,15535,-17.56,88.85,-34.05,241.32,314.98,1354.43,-20.39,-8.72,-1022.52,-21.41,-6.58,-996.38,0.97,1.46,-3.43,1111,1111,1111,1111
10661,315,-102,15495,-16.23,91.25,-36.71,239.75,314.98,1354.43,-20.29,-8.80,-1022.60,-21.35,-6.57,-996.38,-0.66,0.67,-3.57,1111,1111,1111,1111
10668,334,-81,15549,-18.09,91.25,-34.32,239.75,314.98,1354.43,-20.34,-8.68,-1022.67,-21.35,-6.57,-996.38,0.22,-0.52,-3.59,1111,1111,1111,1111
10674,356,-84,15578,-17.56,89.12,-35.91,239.75,314.98,1354.43,-20.56,-8.60,-1022.77,-21.35,-6.57,-996.38,1.12,-0.19,-3.72,1111,1111,1111,1111
10680,301,-74,15543,-17.82,89.65,-37.24,239.75,314.98,1354.43,-20.32,-8.41,-1022.84,-21.35,-6.57,-996.38,-1.65,-1.00,-3.63,1111,1111,1111,1111
10686,348,-59,15566,-18.09,89.39,-36.45,238.17,314.98,1354.43,-20.43,-8.12,-1022.95,-21.35,-6.57,-996.38,0.50,-1.50,-3.86,1111,1111,1111,1111
10706,312,-97,15527,-18.62,92.31,-34.05,238.17,314.98,1354.43,-19.89,-8.44,-1023.15,-21.35,-6.57,-996.38,-1.18,0.83,-3.58,1111,1111,1111,1111
10713,399,-107,15521,-17.82,89.39,-35.91,238.17,314.98,1354.43,-20.28,-8.59,-1023.27,-21.29,-6.55,-996.38,2.30,1.11,-3.95,1111,1111,1111,1111
10720,325,-97,15514,-20.22,92.31,-35.65,238.17,314.98,1354.43,-20.24,-8.63,-1023.36,-21.29,-6.55,-996.38,-0.34,0.48,-3.73,1111,1111,1111,1111
10726,300,-38,15566,-16.76,87.52,-38.57,238.17,314.98,1354.43,-19.99,-8.13,-1023.47,-21.29,-6.55,-996.38,-1.81,-3.04,-3.98,1111,1111,1111,1111
10732,343,-90,15479,-20.75,84.86,-35.65,242.90,314.98,1354.43,-20.30,-8.31,-1023.51,-21.29,-6.55,-996.38,1.71,1.26,-3.49,1111,1111,1111,1111
10738,270,-69,15531,-17.29,92.05,-38.04,242.90,314.98,1354.43,-19.95,-8.20,-1023.52,-21.29,-6.55,-996.38,-2.44,-0.51,-3.31,1111,1111,1111,1111
10758,309,-79,15563,-18.09,89.92,-35.38,242.90,314.98,1354.43,-20.16,-8.33,-1023.55,-21.29,-6.55,-996.38,0.25,0.46,-3.31,1111,1111,1111,1111
10764,339,-76,15508,-17.82,92.05,-36.45,242.90,314.98,1354.43,-20.37,-8.33,-1023.59,-21.22,-6.54,-996.38,1.18,0.20,-3.54,1111,1111,1111,1111
10771,356,-82,15597,-17.29,90.19,-34.85,242.90,314.98,1354.43,-20.66,-8.37,-1023.64,-21.22,-6.54,-996.38,1.61,0.46,-3.55,1111,1111,1111,1111
10777,314,-87,15565,-16.23,89.39,-36.18,242.90,314.98,1354.43,-20.65,-8.42,-1023.66,-21.22,-6.54,-996.38,-0.13,0.55,-3.39,1111,1111,1111,1111
10783,269,-80,15623,-17.03,89.39,-36.98,242.90,314.98,1354.43,-20.18,-8.39,-1023.66,-21.22,-6.54,-996.38,-2.95,-0.01,-3.29,1111,1111,1111,1111
10789,305,-53,15600,-18.89,92.58,-36.45,242.90,314.98,1354.43,-20.14,-8.16,-1023.69,-21.22,-6.54,-996.38,-0.44,-1.30,-3.44,1111,1111,1111,1111
10810,339,-71,15508,-17.82,88.85,-36.71,242.90,314.98,1354.43,-20.93,-8.10,-1023.84,-21.22,-6.54,-996.38,1.41,0.09,-3.57,1111,1111,1111,1111
10816,293,-104,15560,-19.42,89.65,-39.11,242.90,314.98,1354.43,-20.69,-8.40,-1023.86,-21.16,-6.53,-996.38,-1.57,2.04,-3.41,1111,1111,1111,1111
10822,271,-72,15482,-17.56,88.59,-36.18,242.90,314.98,1354.43,-20.26,-8.29,-1023.86,-21.16,-6.53,-996.38,-2.63,-0.44,-3.31,1111,1111,1111,1111
10828,328,-128,15522,-18.89,89.65,-34.58,242.90,314.98,1354.43,-20.38,-8.72,-1023.88,-21.16,-6.53,-996.38,0.67,3.10,-3.42,1111,1111,1111,1111
10835,289,-97,15511,-18.36,87.79,-34.05,242.90,314.98,1354.43,-20.21,-8.85,-1023.87,-21.16,-6.53,-996.38,-1.14,1.02,-3.23,1111,1111,1111,1111
10841,293,-75,15529,-18.89,89.39,-36.18,242.90,314.98,1354.43,-20.09,-8.74,-1023.88,-21.16,-6.53,-996.38,-0.87,-0.47,-3.38,1111,1111,1111,1111
10861,333,-69,15521,-18.89,90.72,-36.18,242.90,314.98,1354.43,-20.68,-8.36,-1024.03,-21.16,-6.53,-996.38,1.03,-0.49,-3.59,1111,1111,1111,1111
10867,326,-88,15532,-18.09,90.45,-34.58,242.90,314.98,1354.43,-20.76,-8.44,-1024.04,-21.11,-6.51,-996.38,0.45,0.75,-3.43,1111,1111,1111,1111
10874,321,-97,15508,-17.82,89.65,-34.85,242.90,314.98,1356.38,-20.80,-8.61,-1024.06,-21.11,-6.51,-996.38,0.19,1.19,-3.41,1111,1111,1111,1111
10881,320,-140,15527,-20.48,91.52,-33.25,242.90,314.98,1356.38,-20.77,-9.12,-1024.07,-21.11,-6.51,-996.38,-0.22,3.62,-3.39,1111,1111,1111,1111
10887,350,-82,15507,-19.69,91.52,-38.57,242.90,314.98,1354.43,-20.98,-9.04,-1024.15,-21.11,-6.51,-996.38,1.14,-0.14,-3.78,1111,1111,1111,1111
10893,291,-48,15584,-19.42,87.26,-38.04,242.90,314.98,1354.43,-20.68,-8.63,-1024.20,-21.11,-6.51,-996.38,-1.96,-2.39,-3.67,1111,1111,1111,1111
10913,324,-90,15474,-18.62,89.92,-36.18,242.90,314.98,1356.38,-20.93,-8.85,-1024.30,-21.11,-6.51,-996.38,0.42,0.67,-3.53,1111,1111,1111,1111
10920,350,-46,15455,-17.03,89.12,-37.51,242.90,314.98,1356.38,-21.09,-8.51,-1024.38,-21.06,-6.50,-996.38,0.98,-1.84,-3.85,1111,1111,1111,1111
10927,241,-65,15552,-18.89,90.98,-36.18,242.90,314.98,1356.38,-20.17,-8.29,-1024.40,-21.06,-6.50,-996.38,-5.31,-1.02,-3.47,1111,1111,1111,1111
10933,369,-40,15496,-19.95,90.72,-36.45,242.90,314.98,1356.38,-20.47,-8.08,-1024.47,-21.06,-6.50,-996.38,1.89,-1.17,-3.84,1111,1111,1111,1111
10939,308,-64,15505,-18.36,92.05,-38.31,242.90,314.98,1356.38,-20.45,-7.98,-1024.50,-21.06,-6.50,-996.38,-0.20,-0.40,-3.55,1111,1111,1111,1111
10945,312,-88,15460,-17.03,89.92,-34.05,242.90,314.98,1356.38,-20.49,-8.13,-1024.50,-21.06,-6.50,-996.38,0.19,1.16,-3.36,1111,1111,1111,1111
10964,324,-77,15502,-18.36,89.39,-35.65,242.90,314.98,1356.38,-20.86,-8.23,-1024.56,-21.06,-6.50,-996.38,0.68,0.40,-3.51,1111,1111,1111,1111
10972,321,-92,15500,-16.23,89.65,-34.85,242.90,314.98,1356.38,-20.89,-8.36,-1024.57,-20.99,-6.49,-996.38,0.21,1.04,-3.45,1111,1111,1111,1111
10978,290,-50,15510,-17.82,90.72,-36.71,244.48,314.98,1356.38,-20.66,-8.07,-1024.58,-20.99,-6.49,-996.38,-1.35,-1.50,-3.39,1111,1111,1111,1111
10984,236,-126,15547,-15.43,91.52,-36.45,244.48,314.98,1356.38,-19.97,-8.60,-1024.55,-20.99,-6.49,-996.38,-4.57,3.69,-3.21,1111,1111,1111,1111
10990,347,-71,15515,-18.09,91.52,-34.58,242.90,314.98,1356.38,-20.26,-8.54,-1024.59,-20.99,-6.49,-996.38,1.55,-0.13,-3.64,1111,1111,1111,1111
10996,344,-98,15486,-16.23,90.19,-38.31,242.90,314.98,1356.38,-20.49,-8.68,-1024.64,-20.99,-6.49,-996.38,1.45,1.19,-3.73,1111,1111,1111,1111
11018,318,-48,15536,-17.29,88.85,-36.71,244.48,314.98,1356.38,-20.74,-7.70,-1024.73,-20.99,-6.49,-996.38,0.42,-1.62,-3.56,1111,1111,1111,1111
11024,270,-57,15559,-18.62,89.12,-35.65,244.48,314.98,1356.38,-20.39,-7.61,-1024.69,-20.93,-6.48,-996.38,-2.20,-0.39,-3.16,1111,1111,1111,1111
11030,298,-43,15506,-16.76,90.98,-35.12,244.48,314.98,1354.43,-20.36,-7.42,-1024.67,-20.93,-6.48,-996.38,-0.19,-1.01,-3.28,1111,1111,1111,1111
11036,343,-96,15510,-21.28,88.06,-34.32,244.48,314.98,1354.43,-20.63,-7.75,-1024.68,-20.93,-6.48,-996.38,1.66,2.33,-3.44,1111,1111,1111,1111
11043,323,-94,15534,-16.76,90.45,-35.12,244.48,314.98,1354.43,-20.76,-8.05,-1024.67,-20.93,-6.48,-996.38,0.74,1.88,-3.35,1111,1111,1111,1111
11048,330,-95,15473,-17.29,89.39,-34.58,244.48,314.98,1354.43,-20.92,-8.28,-1024.67,-20.93,-6.48,-996.38,0.99,1.66,-3.39,1111,1111,1111,1111
11069,298,-87,15480,-18.89,90.45,-36.18,244.48,314.98,1356.38,-20.54,-8.71,-1024.62,-20.93,-6.48,-996.38,-0.74,1.08,-3.29,1111,1111,1111,1111
11075,277,-71,15587,-18.89,90.98,-32.99,244.48,314.98,1356.38,-20.25,-8.60,-1024.58,-20.86,-6.46,-996.38,-1.82,-0.46,-3.14,1111,1111,1111,1111
11082,332,-123,15530,-21.02,88.06,-36.98,244.48,314.98,1354.43,-20.48,-9.05,-1024.60,-20.86,-6.46,-996.38,1.20,2.87,-3.52,1111,1111,1111,1111
11088,319,-88,15566,-19.42,91.78,-36.71,244.48,314.98,1354.43,-20.56,-9.08,-1024.62,-20.86,-6.46,-996.38,0.47,0.46,-3.47,1111,1111,1111,1111
11095,310,-76,15493,-18.36,88.59,-35.91,244.48,314.98,1356.38,-20.59,-8.96,-1024.62,-20.86,-6.46,-996.38,0.14,-0.35,-3.43,1111,1111,1111,1111
11101,291,-110,15571,-16.76,93.38,-37.78,244.48,314.98,1356.38,-20.42,-9.19,-1024.62,-20.86,-6.46,-996.38,-1.12,1.80,-3.34,1111,1111,1111,1111
11107,318,-58,15499,-21.81,90.19,-38.57,242.90,314.98,1356.38,-20.44,-8.88,-1024.68,-20.86,-6.46,-996.38,0.08,-1.47,-3.76,1111,1111,1111,1111
11129,302,-92,15553,-17.82,89.39,-36.98,239.75,314.98,1356.38,-19.79,-8.73,-1024.88,-20.80,-6.45,-996.38,-1.27,0.01,-3.77,1111,1111,1111,1111
11134,270,-112,15511,-17.03,90.19,-36.71,239.75,314.98,1356.38,-19.45,-8.94,-1024.90,-20.80,-6.45,-996.38,-2.38,1.66,-3.59,1111,1111,1111,1111
11142,312,-110,15471,-16.49,90.72,-36.18,239.75,314.98,1354.43,-19.53,-9.12,-1024.95,-20.80,-6.45,-996.38,0.31,1.32,-3.72,1111,1111,1111,1111
11147,302,-95,15471,-19.15,90.98,-36.18,239.75,314.98,1354.43,-19.51,-9.12,-1025.00,-20.80,-6.45,-996.38,-0.26,0.34,-3.71,1111,1111,1111,1111
11154,294,-101,15498,-19.15,90.45,-34.32,239.75,314.98,1354.43,-19.43,-9.18,-1025.02,-20.80,-6.45,-996.38,-0.65,0.69,-3.60,1111,1111,1111,1111
11159,280,-33,15518,-17.82,88.85,-37.51,239.75,314.98,1354.43,-19.20,-8.66,-1025.10,-20.80,-6.45,-996.38,-1.67,-3.17,-3.94,1111,1111,1111,1111
11181,309,-73,15536,-17.56,90.72,-36.18,239.75,314.98,1356.38,-19.47,-8.24,-1025.26,-20.73,-6.44,-996.38,0.34,-0.54,-3.77,1111,1111,1111,1111
11188,330,-72,15493,-18.62,89.12,-34.85,239.75,314.98,1356.38,-19.69,-8.19,-1025.32,-20.73,-6.44,-996.38,1.12,-0.11,-3.79,1111,1111,1111,1111
11193,279,-89,15485,-16.23,90.72,-34.85,239.75,314.98,1356.38,-19.49,-8.26,-1025.33,-20.73,-6.44,-996.38,-1.50,0.71,-3.54,1111,1111,1111,1111
11200,288,-93,15549,-18.36,88.06,-36.71,239.75,314.98,1356.38,-19.39,-8.40,-1025.36,-20.73,-6.44,-996.38,-0.72,1.00,-3.64,1111,1111,1111,1111
11206,318,-103,15522,-17.03,86.73,-37.51,239.75,314.98,1356.38,-19.54,-8.58,-1025.41,-20.73,-6.44,-996.38,0.82,1.42,-3.81,1111,1111,1111,1111
11212,350,-46,15506,-17.82,88.85,-37.51,239.75,314.98,1356.38,-19.80,-8.28,-1025.51,-20.73,-6.44,-996.38,1.44,-1.52,-4.08,1111,1111,1111,1111
11234,296,-89,15462,-18.36,90.98,-36.45,239.75,314.98,1356.38,-19.53,-8.55,-1025.62,-20.68,-6.42,-996.38,-0.63,0.73,-3.71,1111,1111,1111,1111
11240,314,-88,15527,-17.29,92.31,-36.45,239.75,314.98,1356.38,-19.60,-8.57,-1025.66,-20.68,-6.42,-996.38,0.35,0.42,-3.80,1111,1111,1111,1111
11246,359,-94,15481,-16.49,89.65,-36.71,239.75,314.98,1356.38,-19.94,-8.66,-1025.75,-20.68,-6.42,-996.38,1.90,0.75,-4.02,1111,1111,1111,1111
11252,281,-53,15549,-17.56,90.19,-38.04,239.75,314.98,1356.38,-19.67,-8.31,-1025.81,-20.68,-6.42,-996.38,-1.88,-1.99,-3.89,1111,1111,1111,1111
11258,318,-70,15507,-20.22,89.39,-36.98,236.59,314.98,1356.38,-19.68,-8.14,-1025.90,-20.68,-6.42,-996.38,-0.06,-0.78,-4.10,1111,1111,1111,1111
11265,265,-95,15484,-18.09,88.85,-35.38,236.59,314.98,1356.38,-19.23,-8.23,-1025.95,-20.68,-6.42,-996.38,-3.04,0.76,-3.85,1111,1111,1111,1111
11285,321,-102,15570,-16.76,88.59,-36.45,239.75,314.98,1356.38,-19.86,-8.94,-1026.10,-20.61,-6.41,-996.38,1.04,1.59,-3.84,1111,1111,1111,1111
11291,273,-46,15569,-16.23,89.92,-37.78,239.75,314.98,1356.38,-19.52,-8.49,-1026.16,-20.61,-6.41,-996.38,-2.34,-2.62,-3.97,1111,1111,1111,1111
11298,340,-100,15506,-18.09,87.79,-34.32,236.59,313.36,1354.43,-19.76,-8.62,-1026.23,-20.61,-6.41,-996.38,1.27,0.95,-4.00,1111,1111,1111,1111
11303,290,-81,15513,-16.76,90.72,-35.12,236.59,313.36,1354.43,-19.57,-8.50,-1026.28,-20.61,-6.41,-996.38,-1.43,-0.52,-3.90,1111,1111,1111,1111
11311,305,-75,15536,-16.49,90.72,-36.18,239.75,314.98,1354.43,-19.59,-8.40,-1026.32,-20.61,-6.41,-996.38,0.01,-0.32,-3.83,1111,1111,1111,1111
11316,362,-103,15525,-17.82,90.72,-35.91,239.75,314.98,1354.43,-19.90,-8.57,-1026.39,-20.61,-6.41,-996.38,1.94,1.38,-4.04,1111,1111,1111,1111
11337,301,-105,15532,-17.56,91.78,-35.12,239.75,314.98,1356.38,-19.67,-9.21,-1026.47,-20.55,-6.40,-996.38,-0.52,1.47,-3.76,1111,1111,1111,1111
11343,312,-97,15490,-20.48,91.52,-35.12,239.75,314.98,1356.38,-19.72,-9.24,-1026.51,-20.55,-6.40,-996.38,0.19,0.50,-3.86,1111,1111,1111,1111
11351,345,-104,15476,-17.29,89.39,-36.98,239.75,314.98,1356.38,-19.99,-9.31,-1026.59,-20.55,-6.40,-996.38,1.49,0.80,-4.08,1111,1111,1111,1111
11356,324,-68,15509,-21.28,90.19,-36.18,239.75,314.98,1356.38,-20.05,-9.08,-1026.66,-20.55,-6.40,-996.38,0.32,-1.20,-4.06,1111,1111,1111,1111
11363,303,-92,15515,-18.36,87.26,-35.38,238.17,314.98,1356.38,-19.93,-9.00,-1026.71,-20.55,-6.40,-996.38,-0.77,-0.13,-3.98,1111,1111,1111,1111
11368,272,-41,15493,-15.70,88.06,-33.25,238.17,314.98,1356.38,-19.54,-8.49,-1026.77,-20.55,-6.40,-996.38,-2.65,-3.07,-4.02,1111,1111,1111,1111
11389,311,-55,15514,-18.09,88.59,-36.98,238.17,314.98,1354.43,-19.62,-7.54,-1027.02,-20.48,-6.38,-996.38,0.04,-1.59,-4.12,1111,1111,1111,1111
11395,335,-88,15539,-17.82,90.98,-35.91,238.17,314.98,1354.43,-19.80,-7.70,-1027.07,-20.48,-6.38,-996.38,1.13,1.17,-4.03,1111,1111,1111,1111
11402,325,-84,15478,-15.96,88.32,-36.45,239.75,314.98,1354.43,-19.99,-7.84,-1027.11,-20.48,-6.38,-996.38,1.04,0.96,-3.94,1111,1111,1111,1111
11408,340,-45,15487,-19.69,88.85,-33.79,239.75,314.98,1354.43,-20.19,-7.65,-1027.16,-20.48,-6.38,-996.38,1.24,-1.08,-4.00,1111,1111,1111,1111
11414,230,-102,15512,-18.09,85.93,-35.12,238.17,314.98,1354.43,-19.29,-7.96,-1027.18,-20.48,-6.38,-996.38,-5.28,2.00,-3.83,1111,1111,1111,1111
11420,303,-133,15512,-19.15,89.65,-37.24,238.17,314.98,1354.43,-19.30,-8.47,-1027.23,-20.48,-6.38,-996.38,-0.09,3.51,-4.00,1111,1111,1111,1111
11441,326,-91,15499,-18.09,89.12,-36.18,239.75,314.98,1354.43,-20.04,-8.80,-1027.38,-20.42,-6.37,-996.38,1.32,0.91,-4.00,1111,1111,1111,1111
11447,338,-48,15508,-21.02,89.65,-39.37,239.75,314.98,1354.43,-20.19,-8.51,-1027.47,-20.42,-6.37,-996.38,0.89,-1.61,-4.32,1111,1111,1111,1111
11454,329,-103,15528,-18.62,89.65,-32.72,239.75,314.98,1354.43,-20.32,-8.70,-1027.50,-20.42,-6.37,-996.38,0.76,1.38,-3.88,1111,1111,1111,1111
11459,307,-76,15486,-20.22,90.72,-36.18,239.75,314.98,1354.43,-20.26,-8.60,-1027.54,-20.42,-6.37,-996.38,-0.44,-0.41,-3.99,1111,1111,1111,1111
11466,299,-135,15525,-18.62,89.65,-36.98,241.32,314.98,1354.43,-20.16,-9.16,-1027.55,-20.42,-6.37,-996.38,-0.56,3.48,-3.84,1111,1111,1111,1111
11472,315,-69,15512,-18.09,92.05,-36.98,241.32,314.98,1354.43,-20.19,-8.96,-1027.59,-20.42,-6.37,-996.38,0.19,-0.96,-4.01,1111,1111,1111,1111
11479,337,-85,15539,-18.89,87.26,-37.24,239.75,314.98,1354.43,-20.38,-8.91,-1027.66,-20.42,-6.37,-996.38,1.07,-0.01,-4.16,1111,1111,1111,1111
11499,288,-76,15540,-17.03,88.85,-36.18,239.75,314.98,1354.43,-19.52,-8.29,-1027.78,-20.35,-6.36,-996.38,-1.67,-0.88,-3.97,1111,1111,1111,1111
11505,321,-59,15478,-18.36,88.59,-35.91,239.75,314.98,1354.43,-19.68,-8.15,-1027.82,-20.35,-6.36,-996.38,0.95,-0.72,-4.05,1111,1111,1111,1111
11512,343,-90,15519,-18.89,90.45,-35.65,239.75,314.98,1354.43,-19.97,-8.30,-1027.87,-20.35,-6.36,-996.38,1.59,1.07,-4.09,1111,1111,1111,1111
11517,276,-58,15485,-19.69,93.64,-35.12,239.75,314.98,1354.43,-19.70,-8.09,-1027.89,-20.35,-6.36,-996.38,-1.86,-1.15,-3.87,1111,1111,1111,1111
11525,278,-44,15507,-17.29,91.52,-33.79,239.75,314.98,1354.43,-19.47,-7.75,-1027.90,-20.35,-6.36,-996.38,-1.40,-1.79,-3.83,1111,1111,1111,1111
11531,309,-46,15582,-19.42,92.31,-34.85,239.75,314.98,1354.43,-19.54,-7.57,-1027.92,-20.35,-6.36,-996.38,0.36,-1.01,-3.94,1111,1111,1111,1111
11551,319,-84,15521,-17.56,91.25,-34.85,239.75,314.98,1354.43,-20.10,-8.17,-1027.99,-20.29,-6.35,-996.38,0.98,1.28,-3.92,1111,1111,1111,1111
11557,289,-64,15532,-18.36,92.31,-34.58,239.75,314.98,1354.43,-19.93,-8.03,-1028.00,-20.29,-6.35,-996.38,-1.16,-0.69,-3.86,1111,1111,1111,1111
11565,311,-93,15446,-17.82,90.45,-35.91,239.75,314.98,1354.43,-20.00,-8.23,-1028.03,-20.29,-6.35,-996.38,0.36,1.33,-3.95,1111,1111,1111,1111
11571,347,-123,15546,-19.69,92.31,-35.38,239.75,314.98,1354.43,-20.21,-8.60,-1028.07,-20.29,-6.35,-996.38,1.33,2.66,-4.11,1111,1111,1111,1111
11577,312,-108,15514,-19.95,91.25,-35.65,239.75,314.98,1354.43,-20.21,-8.83,-1028.10,-20.29,-6.35,-996.38,-0.01,1.73,-3.98,1111,1111,1111,1111
11582,323,-105,15553,-18.36,91.78,-37.51,239.75,314.98,1354.43,-20.27,-8.97,-1028.15,-20.29,-6.35,-996.38,0.41,1.23,-4.11,1111,1111,1111,1111
11603,320,-91,15516,-17.56,89.65,-35.12,242.90,316.60,1354.43,-20.64,-9.11,-1028.20,-20.24,-6.33,-996.38,0.72,0.58,-3.90,1111,1111,1111,1111
11610,309,-33,15505,-20.75,88.32,-37.51,242.90,316.60,1354.43,-20.56,-8.66,-1028.25,-20.24,-6.33,-996.38,-0.47,-2.65,-4.18,1111,1111,1111,1111
11616,327,-96,15557,-19.42,93.11,-36.71,241.32,316.60,1354.43,-20.62,-8.77,-1028.30,-20.24,-6.33,-996.38,0.38,0.93,-4.08,1111,1111,1111,1111
11622,288,-98,15546,-17.82,88.32,-35.65,241.32,316.60,1354.43,-20.37,-8.86,-1028.31,-20.24,-6.33,-996.38,-1.58,0.87,-3.89,1111,1111,1111,1111
11628,272,-115,15471,-17.56,89.92,-35.38,241.32,316.60,1354.43,-19.97,-9.15,-1028.31,-20.24,-6.33,-996.38,-2.33,2.01,-3.83,1111,1111,1111,1111
11634,324,-122,15535,-17.56,94.97,-36.71,241.32,316.60,1354.43,-20.06,-9.40,-1028.34,-20.24,-6.33,-996.38,0.53,2.02,-4.09,1111,1111,1111,1111
11656,311,-63,15511,-17.82,89.39,-36.18,241.32,314.98,1354.43,-20.17,-8.41,-1028.47,-20.17,-6.32,-996.38,0.20,-1.51,-4.08,1111,1111,1111,1111
11662,377,-82,15522,-18.89,93.91,-35.12,241.32,314.98,1354.43,-20.51,-8.47,-1028.53,-20.17,-6.32,-996.38,2.24,0.65,-4.23,1111,1111,1111,1111
11668,294,-120,15486,-19.95,90.45,-36.71,242.90,314.98,1354.43,-20.41,-8.96,-1028.52,-20.17,-6.32,-996.38,-0.53,3.08,-3.77,1111,1111,1111,1111
11674,315,-34,15462,-19.95,92.05,-36.98,242.90,314.98,1354.43,-20.43,-8.57,-1028.55,-20.17,-6.32,-996.38,0.20,-2.23,-4.11,1111,1111,1111,1111
11681,320,-72,15464,-17.82,90.45,-36.98,242.90,314.98,1354.43,-20.57,-8.53,-1028.57,-20.17,-6.32,-996.38,0.85,-0.00,-3.95,1111,1111,1111,1111
11686,335,-95,15493,-19.15,89.92,-34.58,242.90,314.98,1354.43,-20.77,-8.69,-1028.58,-20.17,-6.32,-996.38,1.33,1.37,-3.91,1111,1111,1111,1111
11708,315,-120,15502,-17.82,89.92,-37.24,242.90,314.98,1354.43,-20.88,-9.97,-1028.60,-20.11,-6.31,-996.38,0.30,2.75,-3.91,1111,1111,1111,1111
11713,311,-126,15538,-22.61,87.52,-36.18,242.90,314.98,1354.43,-20.85,-10.20,-1028.61,-20.11,-6.31,-996.38,-0.08,2.01,-3.90,1111,1111,1111,1111
11720,305,-77,15465,-18.89,88.59,-35.12,242.90,314.98,1354.43,-20.75,-9.89,-1028.63,-20.11,-6.31,-996.38,-0.51,-1.35,-3.98,1111,1111,1111,1111
11726,339,-60,15508,-16.76,91.78,-35.65,242.90,314.98,1354.43,-20.87,-9.57,-1028.67,-20.11,-6.31,-996.38,0.85,-1.70,-4.18,1111,1111,1111,1111
11732,341,-73,15547,-19.95,88.85,-35.38,242.90,314.98,1354.43,-21.05,-9.37,-1028.71,-20.11,-6.31,-996.38,1.13,-0.74,-4.10,1111,1111,1111,1111
11739,348,-104,15535,-16.76,88.85,-34.85,242.90,314.98,1354.43,-21.25,-9.46,-1028.73,-20.11,-6.31,-996.38,1.43,0.96,-4.04,1111,1111,1111,1111
11760,313,-91,15533,-16.76,89.65,-37.78,242.90,314.98,1354.43,-21.00,-9.25,-1028.80,-20.05,-6.29,-996.38,-0.33,-0.02,-4.01,1111,1111,1111,1111
11766,342,-51,15496,-17.82,89.39,-35.91,242.90,314.98,1354.43,-21.13,-8.94,-1028.85,-20.05,-6.29,-996.38,1.02,-1.66,-4.18,1111,1111,1111,1111
11772,255,-69,15508,-19.15,91.52,-37.24,242.90,314.98,1354.43,-20.47,-8.74,-1028.84,-20.05,-6.29,-996.38,-3.84,-0.89,-3.86,1111,1111,1111,1111
11779,268,-67,15548,-16.23,90.19,-35.91,242.90,314.98,1354.43,-20.15,-8.58,-1028.81,-20.05,-6.29,-996.38,-2.04,-0.76,-3.71,1111,1111,1111,1111
11786,310,-77,15512,-20.75,88.06,-35.38,242.90,314.98,1354.43,-20.28,-8.61,-1028.80,-20.05,-6.29,-996.38,0.75,0.44,-3.84,1111,1111,1111,1111
11791,325,-78,15523,-20.75,87.79,-35.91,242.90,314.98,1354.43,-20.46,-8.64,-1028.81,-20.05,-6.29,-996.38,1.24,0.47,-3.95,1111,1111,1111,1111
11812,329,-71,15514,-16.49,90.19,-36.98,242.90,314.98,1354.43,-21.06,-8.42,-1028.89,-19.99,-6.28,-996.38,1.21,-0.15,-4.04,1111,1111,1111,1111
11817,341,-101,15499,-15.96,90.72,-35.91,242.90,314.98,1354.43,-21.23,-8.62,-1028.90,-19.99,-6.28,-996.38,1.25,1.60,-4.01,1111,1111,1111,1111
11825,254,-110,15504,-15.96,89.92,-37.78,242.90,314.98,1354.43,-20.53,-8.94,-1028.88,-19.99,-6.28,-996.38,-3.89,2.16,-3.78,1111,1111,1111,1111
11831,323,-128,15515,-17.56,89.39,-34.58,242.90,314.98,1354.43,-20.64,-9.33,-1028.88,-19.99,-6.28,-996.38,0.79,2.83,-3.90,1111,1111,1111,1111
11837,281,-48,15557,-17.82,90.72,-38.31,242.90,314.98,1354.43,-20.34,-8.87,-1028.91,-19.99,-6.28,-996.38,-1.70,-2.32,-4.05,1111,1111,1111,1111
11843,289,-92,15486,-21.28,93.11,-34.85,242.90,314.98,1354.43,-20.23,-8.98,-1028.88,-19.99,-6.28,-996.38,-0.62,1.06,-3.71,1111,1111,1111,1111
11849,300,-95,15527,-17.03,87.52,-33.79,242.90,314.98,1354.43,-20.26,-9.10,-1028.85,-19.99,-6.28,-996.38,0.20,0.98,-3.72,1111,1111,1111,1111
11871,332,-78,15513,-18.09,88.85,-35.65,242.90,314.98,1354.43,-21.01,-8.91,-1028.92,-19.92,-6.27,-996.38,1.45,-0.02,-4.03,1111,1111,1111,1111
11877,313,-45,15469,-17.56,92.05,-33.79,242.90,314.98,1354.43,-20.96,-8.56,-1028.93,-19.92,-6.27,-996.38,-0.21,-1.98,-3.97,1111,1111,1111,1111
11884,295,-78,15496,-15.70,89.39,-36.98,242.90,314.98,1354.43,-20.81,-8.53,-1028.92,-19.92,-6.27,-996.38,-0.75,0.10,-3.84,1111,1111,1111,1111
11889,338,-104,15530,-17.56,89.92,-38.04,242.90,314.98,1354.43,-20.99,-8.75,-1028.94,-19.92,-6.27,-996.38,1.30,1.77,-4.08,1111,1111,1111,1111
11896,312,-60,15487,-19.42,88.06,-32.72,242.90,314.98,1354.43,-20.98,-8.54,-1028.93,-19.92,-6.27,-996.38,0.07,-0.98,-3.84,1111,1111,1111,1111
11901,326,-47,15486,-17.03,90.19,-34.85,242.90,314.98,1354.43,-21.05,-8.27,-1028.95,-19.92,-6.27,-996.38,0.59,-1.48,-4.02,1111,1111,1111,1111
11923,306,-56,15524,-18.89,90.72,-36.45,242.90,314.98,1354.43,-20.80,-7.68,-1028.95,-19.86,-6.25,-996.38,-0.34,-0.92,-3.91,1111,1111,1111,1111
11928,267,-77,15536,-18.62,88.32,-36.45,242.90,314.98,1354.43,-20.46,-7.82,-1028.90,-19.86,-6.25,-996.38,-2.16,1.09,-3.62,1111,1111,1111,1111
11935,280,-113,15536,-15.70,91.78,-37.24,239.75,314.98,1354.43,-20.12,-8.26,-1028.91,-19.86,-6.25,-996.38,-1.90,2.76,-3.96,1111,1111,1111,1111
11941,257,-89,15517,-19.15,89.39,-36.71,239.75,314.98,1354.43,-19.67,-8.36,-1028.91,-19.86,-6.25,-996.38,-2.94,0.93,-3.89,1111,1111,1111,1111
11948,278,-64,15563,-18.89,89.92,-35.65,238.17,314.98,1354.43,-19.40,-8.15,-1028.94,-19.86,-6.25,-996.38,-1.55,-0.97,-4.08,1111,1111,1111,1111
11954,321,-64,15507,-19.15,90.45,-36.18,238.17,314.98,1354.43,-19.54,-8.05,-1028.99,-19.86,-6.25,-996.38,0.88,-0.43,-4.24,1111,1111,1111,1111
11975,319,-86,15473,-19.15,89.12,-35.38,238.17,314.98,1354.43,-20.05,-8.40,-1029.13,-19.82,-6.24,-996.38,0.92,0.89,-4.17,1111,1111,1111,1111
11981,312,-116,15556,-16.49,87.52,-35.38,238.17,314.98,1354.43,-20.06,-8.69,-1029.16,-19.82,-6.24,-996.38,0.07,2.11,-4.15,1111,1111,1111,1111
11987,304,-68,15545,-16.76,90.19,-37.51,238.17,314.98,1354.43,-19.96,-8.45,-1029.23,-19.82,-6.24,-996.38,-0.52,-1.07,-4.30,1111,1111,1111,1111
11994,283,-90,15564,-19.42,89.92,-39.11,238.17,314.98,1354.43,-19.73,-8.50,-1029.27,-19.82,-6.24,-996.38,-1.49,0.59,-4.21,1111,1111,1111,1111
12000,316,-132,15492,-22.88,89.92,-36.71,238.17,314.98,1354.43,-19.79,-8.97,-1029.32,-19.82,-6.24,-996.38,0.38,3.20,-4.25,1111,1111,1111,1111
12006,324,-101,15458,-13.57,93.11,-38.57,238.17,314.98,1354.43,-19.89,-9.02,-1029.38,-19.82,-6.24,-996.38,0.66,0.66,-4.39,1111,1111,1111,1111
12026,314,-111,15515,-17.82,90.98,-36.98,239.75,314.98,1354.43,-20.14,-9.69,-1029.50,-19.78,-6.23,-996.38,0.48,1.62,-4.18,1111,1111,1111,1111
12033,318,-80,15514,-19.69,90.72,-34.05,239.75,314.98,1354.43,-20.17,-9.50,-1029.53,-19.78,-6.23,-996.38,0.26,-0.81,-4.21,1111,1111,1111,1111
12039,316,-93,15572,-13.57,88.85,-34.05,239.75,314.98,1354.43,-20.21,-9.40,-1029.56,-19.78,-6.23,-996.38,0.28,-0.19,-4.15,1111,1111,1111,1111
12045,358,-66,15513,-20.75,91.25,-34.85,239.75,314.98,1354.43,-20.44,-9.20,-1029.63,-19.78,-6.23,-996.38,1.58,-0.93,-4.43,1111,1111,1111,1111
12052,314,-102,15507,-19.95,91.25,-34.32,239.75,314.98,1354.43,-20.43,-9.29,-1029.65,-19.78,-6.23,-996.38,0.00,0.85,-4.13,1111,1111,1111,1111
12057,320,-118,15489,-15.16,86.19,-35.91,239.75,314.98,1354.43,-20.49,-9.47,-1029.69,-19.78,-6.23,-996.38,0.49,1.56,-4.21,1111,1111,1111,1111
12079,287,-92,15496,-18.62,89.39,-37.51,239.75,314.98,1354.43,-19.59,-9.16,-1029.80,-19.74,-6.22,-996.38,-1.62,-0.20,-4.21,1111,1111,1111,1111
12085,339,-79,15493,-18.89,90.98,-35.38,239.75,314.98,1354.43,-19.82,-9.09,-1029.85,-19.74,-6.22,-996.38,1.53,-0.13,-4.33,1111,1111,1111,1111
12092,302,-88,15503,-17.56,89.12,-34.58,239.75,314.98,1354.43,-19.83,-9.05,-1029.86,-19.74,-6.22,-996.38,0.09,0.15,-4.10,1111,1111,1111,1111
12097,281,-96,15552,-18.62,92.31,-35.38,239.75,314.98,1354.43,-19.65,-9.10,-1029.86,-19.74,-6.22,-996.38,-1.21,0.67,-4.02,1111,1111,1111,1111
12104,323,-97,15536,-17.56,91.25,-38.04,238.17,314.98,1354.43,-19.78,-9.13,-1029.93,-19.74,-6.22,-996.38,0.76,0.51,-4.42,1111,1111,1111,1111
12110,348,-90,15509,-17.29,92.31,-35.12,238.17,314.98,1354.43,-20.00,-9.10,-1030.00,-19.74,-6.22,-996.38,1.48,0.16,-4.44,1111,1111,1111,1111
12131,319,-76,15490,-19.15,90.72,-35.65,239.75,314.98,1354.43,-20.31,-8.67,-1030.12,-19.70,-6.23,-996.38,0.63,-0.49,-4.28,1111,1111,1111,1111
12137,263,-105,15549,-18.89,88.32,-33.25,239.75,314.98,1354.43,-19.89,-8.87,-1030.10,-19.70,-6.23,-996.38,-2.70,1.61,-3.90,1111,1111,1111,1111
12143,324,-87,15538,-18.89,92.31,-36.18,239.75,314.98,1354.43,-20.04,-8.89,-1030.14,-19.70,-6.23,-996.38,0.89,0.39,-4.28,1111,1111,1111,1111
12149,287,-86,15552,-17.82,90.45,-35.91,239.75,314.98,1354.43,-19.89,-8.86,-1030.15,-19.70,-6.23,-996.38,-0.96,0.14,-4.10,1111,1111,1111,1111
12155,312,-105,15483,-17.03,87.52,-35.12,239.75,314.98,1354.43,-20.00,-9.04,-1030.17,-19.70,-6.23,-996.38,0.64,1.39,-4.16,1111,1111,1111,1111
12162,279,-124,15549,-16.76,89.39,-36.18,239.75,314.98,1354.43,-19.78,-9.36,-1030.17,-19.70,-6.23,-996.38,-1.40,2.43,-4.06,1111,1111,1111,1111
12183,331,-93,15518,-17.82,91.78,-34.85,239.75,314.98,1354.43,-20.42,-9.33,-1030.30,-19.66,-6.22,-996.38,1.24,0.32,-4.31,1111,1111,1111,1111
12189,331,-98,15533,-18.89,89.12,-36.18,239.75,314.98,1354.43,-20.54,-9.35,-1030.34,-19.66,-6.22,-996.38,0.88,0.51,-4.35,1111,1111,1111,1111
12195,309,-104,15589,-19.15,89.12,-37.51,239.75,314.98,1354.43,-20.47,-9.42,-1030.38,-19.66,-6.22,-996.38,-0.29,0.78,-4.29,1111,1111,1111,1111
12201,310,-68,15584,-20.22,90.19,-37.78,239.75,314.98,1354.43,-20.40,-9.16,-1030.43,-19.66,-6.22,-996.38,-0.37,-1.36,-4.42,1111,1111,1111,1111
12209,338,-48,15501,-20.48,87.52,-37.78,239.75,314.98,1354.43,-20.55,-8.78,-1030.52,-19.66,-6.22,-996.38,0.96,-1.80,-4.58,1111,1111,1111,1111
12214,357,-92,15577,-21.55,88.59,-36.18,239.75,314.98,1354.43,-20.80,-8.85,-1030.57,-19.66,-6.22,-996.38,1.76,0.77,-4.46,1111,1111,1111,1111
12221,282,-105,15506,-17.29,90.72,-40.17,239.75,314.98,1354.43,-20.42,-9.02,-1030.61,-19.66,-6.22,-996.38,-2.06,1.29,-4.30,1111,1111,1111,1111
12241,287,-78,15500,-17.82,89.39,-36.98,239.75,314.98,1354.43,-19.68,-8.54,-1030.68,-19.63,-6.20,-996.38,-1.34,-0.60,-4.25,1111,1111,1111,1111
12248,327,-88,15477,-19.69,85.66,-35.12,239.75,314.98,1354.43,-19.91,-8.63,-1030.71,-19.63,-6.20,-996.38,1.52,0.88,-4.28,1111,1111,1111,1111
12255,382,-130,15502,-16.76,89.65,-35.65,241.32,314.98,1354.43,-20.34,-9.03,-1030.77,-19.63,-6.20,-996.38,2.54,2.60,-4.50,1111,1111,1111,1111
12260,286,-77,15538,-20.48,85.40,-36.18,241.32,314.98,1354.43,-20.22,-8.94,-1030.76,-19.63,-6.20,-996.38,-0.74,-0.26,-4.08,1111,1111,1111,1111
12267,335,-111,15515,-19.42,88.59,-36.45,241.32,314.98,1354.43,-20.47,-9.21,-1030.79,-19.63,-6.20,-996.38,1.49,1.88,-4.30,1111,1111,1111,1111
12273,332,-72,15513,-20.75,89.65,-35.91,241.32,314.98,1354.43,-20.62,-9.08,-1030.83,-19.63,-6.20,-996.38,1.10,-0.47,-4.34,1111,1111,1111,1111
12295,304,-77,15532,-17.56,89.65,-36.98,241.32,314.98,1356.38,-20.44,-8.65,-1030.87,-19.59,-6.19,-996.38,-0.22,-0.47,-4.22,1111,1111,1111,1111
12301,303,-93,15494,-18.89,92.58,-34.85,244.48,314.98,1356.38,-20.51,-8.87,-1030.82,-19.59,-6.19,-996.38,0.55,1.58,-3.85,1111,1111,1111,1111
12307,310,-81,15517,-17.29,90.19,-37.78,244.48,314.98,1356.38,-20.62,-8.91,-1030.81,-19.59,-6.19,-996.38,0.84,0.56,-4.03,1111,1111,1111,1111
12313,278,-103,15474,-17.29,92.85,-38.31,244.48,314.98,1356.38,-20.43,-9.19,-1030.76,-19.59,-6.19,-996.38,-0.98,1.94,-3.84,1111,1111,1111,1111
12319,374,-83,15473,-17.82,92.31,-35.91,244.48,314.98,1356.38,-20.79,-9.22,-1030.80,-19.59,-6.19,-996.38,2.54,0.59,-4.38,1111,1111,1111,1111
12326,300,-85,15533,-15.70,89.65,-36.98,241.32,314.98,1356.38,-20.66,-9.12,-1030.81,-19.59,-6.19,-996.38,-0.61,-0.21,-4.19,1111,1111,1111,1111
12347,301,-79,15516,-18.09,89.65,-36.18,244.48,314.98,1354.43,-20.75,-9.03,-1030.70,-19.55,-6.18,-996.38,0.30,0.18,-3.92,1111,1111,1111,1111
12353,328,-70,15546,-17.03,90.19,-38.57,244.48,314.98,1354.43,-20.92,-8.94,-1030.71,-19.55,-6.18,-996.38,1.28,-0.22,-4.20,1111,1111,1111,1111
12359,305,-72,15498,-18.62,90.98,-33.79,241.32,314.98,1354.43,-20.81,-8.78,-1030.71,-19.55,-6.18,-996.38,-0.46,-0.63,-4.10,1111,1111,1111,1111
12365,301,-138,15461,-15.96,90.98,-35.91,241.32,314.98,1354.43,-20.69,-9.27,-1030.71,-19.55,-6.18,-996.38,-0.62,3.55,-4.13,1111,1111,1111,1111
12372,323,-49,15442,-18.62,91.25,-36.18,241.32,314.98,1354.43,-20.73,-8.88,-1030.75,-19.55,-6.18,-996.38,0.38,-1.90,-4.40,1111,1111,1111,1111
12378,345,-81,15478,-19.69,91.78,-35.38,241.32,314.98,1354.43,-20.93,-8.87,-1030.79,-19.55,-6.18,-996.38,1.45,0.24,-4.34,1111,1111,1111,1111
12399,337,-78,15510,-18.89,90.72,-35.38,241.32,314.98,1354.43,-21.42,-8.67,-1030.88,-19.51,-6.16,-996.38,1.10,-0.06,-4.31,1134,1132,1140,1140
12405,296,-101,15576,-18.36,93.91,-38.57,241.32,314.98,1354.43,-21.14,-8.84,-1030.89,-19.51,-6.16,-996.38,-1.63,1.37,-4.19,1132,1134,1138,1141
12412,291,-125,15506,-19.69,90.19,-36.71,239.75,314.98,1354.43,-20.79,-9.24,-1030.91,-19.51,-6.16,-996.38,-1.84,2.68,-4.24,1132,1134,1137,1142
12419,279,-29,15563,-15.96,91.25,-34.85,239.75,314.98,1354.43,-20.37,-8.65,-1030.96,-19.51,-6.16,-996.38,-2.53,-3.47,-4.47,1131,1135,1142,1137
12425,255,-109,15542,-16.49,90.19,-35.12,241.32,314.98,1354.43,-19.86,-8.97,-1030.91,-19.51,-6.16,-996.38,-2.85,2.16,-3.89,1131,1135,1138,1141
12431,314,-81,15433,-18.36,88.85,-35.38,241.32,314.98,1354.43,-20.01,-8.96,-1030.92,-19.51,-6.16,-996.38,1.05,0.26,-4.19,1134,1132,1139,1140
12451,319,-89,15534,-17.82,89.92,-35.91,241.32,314.98,1354.43,-20.54,-9.12,-1030.96,-19.47,-6.15,-996.38,1.08,0.65,-4.22,1158,1156,1163,1164
12457,294,-100,15496,-18.62,90.98,-39.11,241.32,314.98,1354.43,-20.42,-9.23,-1030.97,-19.47,-6.15,-996.38,-0.61,1.07,-4.21,1156,1157,1162,1164
12465,337,-106,15514,-17.56,89.12,-35.91,241.32,314.98,1354.43,-20.66,-9.39,-1031.00,-19.47,-6.15,-996.38,1.44,1.28,-4.32,1158,1156,1162,1164
12471,390,-71,15553,-16.76,89.65,-34.32,241.32,314.98,1354.43,-21.02,-9.26,-1031.07,-19.47,-6.15,-996.38,2.51,-0.47,-4.58,1158,1155,1164,1163
12477,306,-93,15430,-16.49,87.52,-35.12,239.75,314.98,1354.43,-20.88,-9.21,-1031.09,-19.47,-6.15,-996.38,-0.62,0.07,-4.30,1156,1157,1163,1163
12483,305,-101,15568,-19.15,90.19,-36.71,239.75,314.98,1354.43,-20.74,-9.26,-1031.11,-19.47,-6.15,-996.38,-0.76,0.72,-4.32,1156,1157,1163,1164
12505,304,-87,15509,-19.15,89.12,-37.78,239.75,314.98,1354.43,-20.33,-8.96,-1031.24,-19.43,-6.14,-996.38,-0.62,-0.19,-4.40,1161,1162,1168,1168
12511,339,-131,15489,-18.36,92.58,-37.51,239.75,314.98,1354.43,-20.49,-9.32,-1031.29,-19.43,-6.14,-996.38,1.16,2.69,-4.50,1162,1161,1166,1170
12518,306,-75,15577,-19.95,91.25,-37.24,239.75,314.98,1354.43,-20.39,-9.11,-1031.33,-19.43,-6.14,-996.38,-0.44,-0.85,-4.43,1161,1162,1169,1168
12523,309,-65,15491,-19.42,88.59,-38.04,239.75,314.98,1354.43,-20.38,-8.87,-1031.37,-19.43,-6.14,-996.38,-0.00,-1.16,-4.49,1161,1161,1169,1167
12530,277,-106,15472,-17.82,92.05,-38.04,239.75,314.98,1354.43,-20.04,-9.09,-1031.38,-19.43,-6.14,-996.38,-1.76,1.53,-4.24,1160,1163,1167,1169
12536,312,-95,15542,-18.36,89.92,-36.18,239.75,314.98,1354.43,-20.11,-9.14,-1031.40,-19.43,-6.14,-996.38,0.48,0.67,-4.33,1162,1161,1168,1169
12558,285,-143,15534,-17.29,89.65,-56.66,238.17,314.98,1354.43,-19.28,-10.75,-1031.91,-19.39,-6.12,-996.38,-1.50,3.47,-5.19,1167,1169,1173,1179
12563,208,74,15466,-21.55,90.19,-88.32,238.17,314.98,1354.43,-18.58,-9.82,-1032.37,-19.39,-6.12,-996.38,-4.54,-5.45,-7.20,1163,1170,1182,1173
12570,296,-160,15631,-21.02,97.37,-95.77,238.17,314.98,1356.38,-18.60,-10.39,-1032.80,-19.39,-6.12,-996.38,0.05,3.78,-6.81,1167,1167,1174,1180
12576,226,38,15528,-16.49,93.91,-85.93,238.17,314.98,1356.38,-18.05,-9.49,-1033.20,-19.39,-6.12,-996.38,-3.65,-5.29,-6.98,1164,1169,1181,1173
12583,-32,-30,15391,-9.84,99.23,-49.22,239.75,314.98,1356.38,-16.16,-9.20,-1033.42,-19.39,-6.12,-996.38,-10.85,-1.26,-5.65,1159,1176,1177,1175
12589,430,-343,15680,-25.01,98.17,3.99,239.75,314.98,1356.38,-16.40,-10.14,-1033.30,-19.39,-6.12,-996.38,1.13,6.45,-3.64,1170,1168,1170,1180
12596,434,-1,15648,-5.85,83.00,63.58,239.75,314.98,1356.38,-17.00,-9.71,-1032.75,-19.39,-6.12,-996.38,3.07,-1.94,-1.30,1173,1168,1174,1171
12617,459,-70,15565,-17.82,78.75,95.24,242.90,314.98,1381.69,-19.29,-9.78,-1030.29,-19.35,-6.11,-996.38,4.03,0.56,0.25,1180,1174,1176,1177
12623,975,-163,15069,-16.76,69.70,12.24,242.90,314.98,1381.69,-20.05,-9.97,-1030.19,-19.35,-6.11,-996.38,4.92,1.70,-3.37,1178,1170,1178,1181
12631,335,-170,15731,-9.05,76.88,-33.52,244.48,314.98,1381.69,-20.35,-10.56,-1030.19,-19.35,-6.11,-996.38,1.79,3.77,-4.08,1175,1172,1177,1183
12637,399,337,15317,-20.75,93.64,-68.64,244.48,314.98,1381.69,-20.17,-9.57,-1030.57,-19.35,-6.11,-996.38,-1.02,-5.88,-6.53,1171,1173,1186,1177
12643,529,-30,15199,-21.02,125.04,-72.36,253.94,326.32,1387.54,-20.58,-9.44,-1030.97,-19.35,-6.11,-996.38,2.41,-0.33,-6.32,1174,1170,1182,1181
12649,515,-636,15980,-33.79,138.34,-86.46,253.94,326.32,1387.54,-20.28,-10.67,-1031.41,-19.35,-6.11,-996.38,-1.77,8.42,-7.04,1170,1173,1176,1189
12670,46,32,15490,-13.83,117.05,-114.13,253.94,327.94,1397.27,-14.80,-8.55,-1033.47,-19.31,-6.10,-996.38,-10.44,-3.54,-8.16,1163,1179,1186,1180
12677,155,-408,15918,-23.68,101.09,-110.14,257.10,327.94,1397.27,-14.29,-9.99,-1034.04,-19.31,-6.10,-996.38,-3.44,8.48,-7.72,1168,1174,1176,1189
12683,220,-382,15027,-22.61,109.07,-88.32,257.10,327.94,1397.27,-14.07,-11.18,-1034.42,-19.31,-6.10,-996.38,-2.02,8.11,-6.95,1170,1173,1176,1188
12690,-185,363,15588,-3.46,83.80,-65.98,258.68,327.94,1407.01,-12.81,-10.05,-1034.78,-19.31,-6.10,-996.38,-7.82,-5.81,-6.60,1166,1178,1186,1177
12696,-39,310,15876,-40.70,112.80,-43.10,258.68,327.94,1407.01,-11.83,-9.17,-1034.91,-19.31,-6.10,-996.38,-7.07,-5.19,-5.46,1167,1178,1185,1177
12702,466,-497,15414,-10.38,86.46,-29.26,263.41,332.79,1407.01,-12.17,-10.20,-1034.99,-19.31,-6.10,-996.38,1.03,6.27,-5.07,1174,1172,1176,1186
12724,248,-75,15448,-14.10,79.28,-2.93,269.72,331.17,1407.01,-14.32,-11.02,-1034.02,-19.27,-6.09,-996.38,3.19,2.03,-2.81,1177,1172,1177,1181
12730,589,104,15116,-31.66,48.15,1.06,269.72,331.17,1407.01,-15.15,-10.85,-1033.90,-19.27,-6.09,-996.38,4.76,-0.52,-3.77,1178,1170,1180,1179
12737,485,-249,15810,-10.11,41.50,-10.64,269.72,327.94,1407.01,-16.07,-11.46,-1033.79,-19.27,-6.09,-996.38,4.75,4.06,-3.90,1177,1170,1177,1183
12743,335,-132,15520,-14.10,33.52,-24.74,269.72,327.94,1407.01,-16.94,-11.79,-1033.69,-19.27,-6.09,-996.38,5.22,2.76,-3.84,1178,1170,1178,1182
12750,212,142,15557,-12.24,50.01,-48.15,269.72,323.08,1414.80,-17.15,-10.72,-1033.76,-19.27,-6.09,-996.38,0.90,-5.35,-4.85,1174,1172,1185,1176
12755,518,-249,15503,-18.09,74.49,-48.68,269.72,323.08,1414.80,-17.77,-11.31,-1033.90,-19.27,-6.09,-996.38,3.73,4.35,-5.41,1176,1170,1178,1184
12777,693,-107,15481,-18.09,115.46,-49.22,269.72,323.08,1414.80,-19.48,-11.91,-1034.57,-19.24,-6.07,-996.38,3.11,1.79,-5.78,1175,1170,1180,1183
12783,279,-93,15693,-23.41,119.45,-49.75,269.72,323.08,1414.80,-19.68,-12.07,-1034.48,-19.24,-6.07,-996.38,1.30,1.68,-4.04,1175,1173,1179,1181
12790,295,-31,15359,-15.96,111.47,-47.89,269.72,323.08,1414.80,-19.95,-11.70,-1034.45,-19.24,-6.07,-996.38,1.60,-1.34,-4.37,1175,1172,1181,1179
12795,592,-84,15307,-16.76,101.36,-53.21,269.72,323.08,1414.80,-20.51,-11.79,-1034.64,-19.24,-6.07,-996.38,3.70,1.24,-5.80,1175,1170,1180,1182
12803,-294,-206,15803,-19.15,98.17,-46.02,268.14,319.84,1414.80,-18.57,-12.22,-1034.81,-19.24,-6.07,-996.38,-11.04,3.18,-5.60,1164,1181,1179,1184
12809,39,-122,15169,-16.23,88.59,-29.00,268.14,319.84,1414.80,-17.22,-12.60,-1034.54,-19.24,-6.07,-996.38,-8.78,3.21,-2.86,1168,1181,1177,1181
12830,197,-120,15488,-19.15,81.94,-13.57,269.72,319.84,1405.06,-18.29,-14.00,-1033.08,-19.20,-6.06,-996.38,1.77,3.40,-1.84,1177,1174,1176,1181
12836,627,373,15554,-15.96,77.15,-16.76,269.72,319.84,1405.06,-18.67,-13.26,-1033.11,-19.20,-6.06,-996.38,2.35,-3.84,-4.60,1175,1171,1183,1177
12844,58,-395,15492,-19.95,80.08,-25.27,269.72,318.22,1403.12,-17.80,-14.65,-1033.03,-19.20,-6.06,-996.38,-5.00,8.74,-3.96,1170,1178,1173,1187
12849,-355,3,15670,-9.84,83.27,-26.34,269.72,318.22,1403.12,-16.16,-14.40,-1033.07,-19.20,-6.06,-996.38,-10.72,-0.60,-4.63,1165,1181,1181,1180
12856,336,-32,14982,-13.04,80.61,-29.53,268.14,318.22,1397.27,-16.83,-14.08,-1033.01,-19.20,-6.06,-996.38,3.41,-0.77,-4.10,1176,1171,1181,1179
12862,625,-173,15944,-17.03,76.35,-25.54,268.14,318.22,1397.27,-17.54,-14.30,-1033.04,-19.20,-6.06,-996.38,4.30,2.41,-4.57,1177,1170,1178,1182
12883,421,-91,15579,-21.55,82.47,-44.69,264.98,318.22,1397.27,-19.75,-14.22,-1033.33,-19.16,-6.05,-996.38,4.05,0.83,-4.96,1176,1170,1180,1181
12890,466,154,15143,-22.35,79.01,-65.44,264.98,318.22,1397.27,-20.12,-13.54,-1033.62,-19.16,-6.05,-996.38,2.46,-3.43,-6.28,1174,1170,1184,1179
12896,6,-155,15466,-9.84,94.18,-61.19,263.41,318.22,1397.27,-18.28,-13.79,-1033.74,-19.16,-6.05,-996.38,-10.25,2.28,-5.19,1165,1181,1179,1183
12902,283,-199,15696,-15.43,101.62,-46.02,263.41,318.22,1397.27,-18.54,-14.34,-1033.70,-19.16,-6.05,-996.38,1.59,4.51,-4.23,1175,1172,1177,1184
12909,473,45,15197,-29.00,90.98,-29.00,261.83,318.22,1389.48,-19.06,-13.89,-1033.76,-19.16,-6.05,-996.38,2.90,-1.61,-4.81,1175,1171,1182,1179
12914,644,-199,15924,-21.55,96.04,-23.68,261.83,318.22,1389.48,-19.64,-14.17,-1033.80,-19.16,-6.05,-996.38,3.75,2.75,-4.70,1176,1170,1178,1183
12936,166,37,15491,-15.43,82.20,-27.40,263.41,318.22,1389.48,-17.73,-10.84,-1033.50,-19.12,-6.03,-996.38,-3.60,-5.44,-3.92,1171,1177,1184,1176
12942,496,-633,15588,-11.44,78.21,-20.75,263.41,318.22,1389.48,-17.92,-11.90,-1033.52,-19.12,-6.03,-996.38,1.01,7.39,-4.58,1174,1173,1175,1186
12949,235,-189,15769,-29.53,97.90,-8.78,261.83,318.22,1387.54,-18.00,-12.84,-1033.18,-19.12,-6.03,-996.38,0.35,6.11,-2.49,1175,1175,1174,1183
12954,704,73,15188,-26.87,89.39,-14.10,261.83,318.22,1387.54,-18.59,-12.64,-1033.18,-19.12,-6.03,-996.38,3.66,-0.49,-4.44,1176,1171,1181,1180
12961,306,-80,15388,-19.95,88.59,-34.58,261.83,318.22,1387.54,-19.10,-12.56,-1033.09,-19.12,-6.03,-996.38,2.85,0.34,-3.89,1176,1172,1180,1180
12967,230,336,15863,-8.25,96.84,-51.61,261.83,318.22,1387.54,-18.68,-11.44,-1033.31,-19.12,-6.03,-996.38,-2.71,-6.43,-5.81,1170,1174,1186,1176
12975,253,-333,15598,-14.10,79.54,-64.91,261.83,318.22,1387.54,-18.62,-12.71,-1033.50,-19.12,-6.03,-996.38,-0.41,7.82,-5.54,1172,1173,1175,1187
12995,404,-88,15441,-23.41,91.25,-45.76,261.83,318.22,1387.54,-20.57,-12.84,-1033.77,-19.08,-6.02,-996.38,3.70,1.05,-4.97,1176,1170,1180,1181
13001,163,-263,15535,-20.48,81.67,-54.27,261.83,318.22,1387.54,-19.87,-13.91,-1033.80,-19.08,-6.02,-996.38,-4.37,7.74,-4.63,1170,1177,1174,1186
13008,185,362,15505,0.80,92.85,-49.48,261.83,319.84,1387.54,-19.23,-12.54,-1034.06,-19.08,-6.02,-996.38,-3.52,-6.75,-5.96,1170,1175,1187,1176
13015,-18,-421,15437,-14.90,91.78,-38.31,261.83,319.84,1387.54,-18.08,-13.62,-1034.13,-19.08,-6.02,-996.38,-7.37,7.70,-5.00,1167,1179,1175,1187
13021,573,-427,15645,-30.86,86.19,-22.08,261.83,319.84,1387.54,-18.59,-14.60,-1034.16,-19.08,-6.02,-996.38,2.73,6.48,-4.67,1175,1171,1175,1185
13027,463,80,15567,-21.02,93.11,-4.26,261.83,319.84,1387.54,-18.95,-14.03,-1034.07,-19.08,-6.02,-996.38,2.28,-2.65,-3.95,1176,1172,1182,1178
13048,254,-78,15533,-13.04,87.26,-30.86,261.83,319.84,1387.54,-19.57,-12.56,-1033.49,-19.04,-6.01,-996.38,1.15,-1.79,-3.44,1175,1173,1181,1178
13054,122,273,15267,-20.48,94.18,-35.65,261.83,319.84,1387.54,-18.85,-11.53,-1033.60,-19.04,-6.01,-996.38,-4.59,-5.89,-5.18,1169,1176,1185,1176
13062,546,-618,15481,-34.05,88.85,-30.33,263.41,318.22,1387.54,-19.05,-12.84,-1033.70,-19.04,-6.01,-996.38,1.11,8.10,-4.99,1174,1172,1174,1187
13068,606,279,15305,-26.34,94.97,-35.65,263.41,318.22,1387.54,-19.37,-12.22,-1033.84,-19.04,-6.01,-996.38,2.12,-3.17,-5.39,1174,1171,1183,1179
13074,180,459,15417,-13.30,98.70,-52.94,263.41,319.84,1387.54,-18.74,-10.96,-1034.12,-19.04,-6.01,-996.38,-3.57,-6.43,-6.10,1169,1175,1186,1177
13080,-65,-179,16183,-5.32,84.33,-57.73,263.41,319.84,1387.54,-17.23,-11.43,-1034.23,-19.04,-6.01,-996.38,-9.78,3.62,-5.22,1165,1180,1178,1184
13102,364,-153,15444,-25.01,88.32,-36.71,261.83,318.22,1387.54,-19.10,-13.02,-1034.22,-19.00,-5.99,-996.38,3.39,3.73,-4.52,1176,1171,1177,1183
13108,180,64,15533,-18.36,92.85,-30.33,261.83,318.22,1387.54,-18.57,-11.95,-1034.15,-19.00,-5.99,-996.38,-3.02,-5.24,-4.16,1171,1176,1184,1176
13114,294,-394,15648,8.51,78.48,-37.51,261.83,318.22,1387.54,-18.59,-12.92,-1034.20,-19.00,-5.99,-996.38,0.10,6.99,-4.81,1173,1173,1175,1186
13121,250,0,15368,0.53,79.81,-30.86,261.83,318.22,1385.59,-18.78,-12.07,-1034.07,-19.00,-5.99,-996.38,1.06,-4.05,-3.84,1175,1173,1183,1177
13127,656,-525,15347,-35.65,95.51,-19.69,261.83,318.22,1385.59,-19.11,-13.04,-1034.10,-19.00,-5.99,-996.38,2.10,7.04,-4.69,1175,1172,1175,1186
13133,203,-225,15620,-41.77,75.29,-22.35,261.83,318.22,1385.59,-18.92,-14.27,-1033.83,-19.00,-5.99,-996.38,-1.05,7.82,-2.99,1174,1175,1173,1185
13156,339,40,15509,-9.05,92.05,-34.85,261.83,319.84,1387.54,-19.67,-11.53,-1033.96,-18.96,-5.98,-996.38,1.39,-4.13,-4.74,1174,1172,1184,1177
13161,782,-363,15632,-25.27,109.87,-32.46,261.83,319.84,1387.54,-20.09,-12.16,-1034.07,-18.96,-5.98,-996.38,2.82,4.70,-5.23,1175,1171,1177,1184
13168,-96,221,15319,-45.49,89.39,-39.37,261.83,318.22,1387.54,-18.62,-11.44,-1034.23,-18.96,-5.98,-996.38,-8.23,-3.31,-5.42,1166,1179,1184,1178
13174,-37,24,15967,-8.78,81.41,-52.41,261.83,318.22,1387.54,-17.20,-10.93,-1034.32,-18.96,-5.98,-996.38,-9.23,-2.65,-5.09,1166,1180,1183,1179
13180,573,64,15291,0.80,83.27,-54.27,261.83,318.22,1387.54,-17.90,-10.54,-1034.55,-18.96,-5.98,-996.38,3.83,-1.65,-5.92,1175,1169,1183,1180
13187,412,-70,15553,0.53,88.32,-50.81,261.83,318.22,1387.54,-18.49,-10.54,-1034.66,-18.96,-5.98,-996.38,3.71,0.52,-5.26,1176,1170,1180,1181
13208,310,-158,15580,-27.67,88.06,-40.17,261.83,318.22,1387.54,-19.90,-12.82,-1034.50,-18.92,-5.97,-996.38,2.63,4.92,-4.30,1175,1170,1175,1183
13214,39,405,15518,-4.79,86.46,-33.79,261.83,318.22,1387.54,-19.07,-11.71,-1034.64,-18.92,-5.97,-996.38,-5.21,-6.38,-5.43,1168,1176,1185,1175
13220,339,-476,15305,-8.25,87.52,-22.35,261.83,318.22,1387.54,-19.04,-12.92,-1034.63,-18.92,-5.97,-996.38,-0.15,7.79,-4.53,1172,1172,1173,1185
13227,834,-583,15420,-23.41,88.85,-18.09,261.83,318.22,1387.54,-19.49,-13.75,-1034.66,-18.92,-5.97,-996.38,2.87,6.11,-4.82,1174,1170,1175,1184
13234,218,-88,15527,-31.13,85.13,-25.54,261.83,318.22,1387.54,-19.40,-13.46,-1034.34,-18.92,-5.97,-996.38,-0.40,-0.67,-2.76,1173,1174,1178,1177
13240,188,640,15464,-10.91,87.26,-33.79,261.83,318.22,1387.54,-18.91,-12.34,-1034.50,-18.92,-5.97,-996.38,-3.14,-6.39,-5.60,1169,1174,1185,1175
13261,436,-252,15522,-20.22,98.43,-28.73,261.83,318.22,1387.54,-20.40,-14.69,-1034.49,-18.88,-5.96,-996.38,2.79,5.17,-4.56,1174,1170,1175,1183
13267,-269,-372,15435,-17.56,74.49,-44.16,261.83,318.22,1387.54,-18.90,-15.29,-1034.66,-18.88,-5.96,-996.38,-9.54,4.98,-5.64,1164,1179,1176,1184
13275,126,445,15480,-2.93,90.72,-44.16,260.25,319.84,1385.59,-18.17,-13.96,-1034.90,-18.88,-5.96,-996.38,-4.11,-6.45,-5.98,1168,1174,1185,1175
13280,886,513,15859,-33.52,89.39,-40.17,260.25,319.84,1385.59,-18.53,-13.35,-1035.11,-18.88,-5.96,-996.38,2.20,-2.91,-5.96,1173,1170,1183,1178
13287,142,-1115,15743,-4.79,83.80,-32.46,263.41,319.84,1385.59,-17.95,-14.72,-1035.24,-18.88,-5.96,-996.38,-3.36,8.76,-5.42,1169,1174,1173,1187
13293,452,-233,14340,-23.94,84.33,-34.85,263.41,319.84,1385.59,-18.54,-15.21,-1035.30,-18.88,-5.96,-996.38,3.69,4.23,-5.03,1175,1169,1176,1183
13314,312,150,15756,-22.08,81.94,-40.44,260.25,318.22,1385.59,-18.55,-12.01,-1035.72,-18.84,-5.94,-996.38,-0.02,-5.04,-5.48,1172,1172,1184,1176
13320,607,-395,14949,2.13,92.05,-23.41,260.25,318.22,1385.59,-19.00,-12.65,-1035.76,-18.84,-5.94,-996.38,2.77,4.77,-4.96,1174,1170,1176,1183
13327,96,-101,15594,-36.45,101.89,-37.24,260.25,318.22,1385.59,-17.56,-12.76,-1035.52,-18.84,-5.94,-996.38,-8.26,1.44,-3.35,1167,1180,1177,1180
13333,-182,391,15800,-15.96,89.92,-50.81,260.25,318.22,1385.59,-16.39,-11.85,-1035.75,-18.84,-5.94,-996.38,-7.72,-5.05,-6.19,1165,1177,1184,1177
13340,419,-600,15181,-14.90,97.10,-39.11,260.25,318.22,1385.59,-16.43,-13.10,-1035.90,-18.84,-5.94,-996.38,-0.07,7.78,-5.54,1172,1172,1174,1186
13345,738,161,15948,-34.32,92.05,-27.14,260.25,318.22,1385.59,-16.96,-12.83,-1035.98,-18.84,-5.94,-996.38,3.15,-0.92,-5.31,1174,1169,1181,1179
13368,182,47,15547,-10.91,83.27,-40.97,260.25,319.84,1383.64,-16.40,-9.60,-1035.88,-18.81,-5.93,-996.38,-1.28,-5.25,-4.56,1171,1173,1183,1175
13373,260,-690,15691,-44.96,101.09,-21.81,260.25,319.84,1383.64,-16.08,-11.01,-1035.90,-18.81,-5.93,-996.38,-2.41,9.59,-4.88,1170,1174,1172,1187
13380,890,159,15013,-7.18,76.09,-19.42,258.68,319.84,1383.64,-16.86,-10.67,-1035.97,-18.81,-5.93,-996.38,4.10,-1.34,-5.11,1175,1169,1181,1179
13386,-47,-308,15060,-9.58,85.93,-32.19,258.68,319.84,1383.64,-15.69,-11.65,-1035.97,-18.81,-5.93,-996.38,-7.78,6.87,-4.74,1166,1178,1174,1185
13393,284,441,15260,-18.62,88.06,-36.45,258.68,318.22,1383.64,-15.54,-10.51,-1036.12,-18.81,-5.93,-996.38,-1.21,-5.81,-5.63,1171,1172,1185,1176
13400,274,-274,16394,-10.91,90.19,-37.51,258.68,318.22,1383.64,-15.73,-11.41,-1036.11,-18.81,-5.93,-996.38,0.80,6.34,-4.71,1173,1172,1175,1184
13406,469,-768,15567,-32.19,110.94,-27.40,258.68,319.84,1383.64,-15.61,-12.84,-1036.20,-18.81,-5.93,-996.38,-1.03,8.65,-5.27,1171,1173,1173,1187
13427,282,188,15497,-12.77,80.87,-49.75,258.68,318.22,1383.64,-16.04,-9.65,-1036.74,-18.77,-5.92,-996.38,0.45,-5.29,-5.81,1172,1171,1184,1176
13433,392,-641,15649,-39.37,111.20,-35.65,258.68,318.22,1383.64,-15.90,-10.95,-1036.85,-18.77,-5.92,-996.38,-1.22,8.78,-5.54,1171,1173,1173,1187
13440,387,-176,15210,-13.04,93.38,-40.97,258.68,318.22,1385.59,-16.49,-11.47,-1036.91,-18.77,-5.92,-996.38,2.96,3.55,-5.23,1174,1170,1177,1183
13446,427,271,15509,-16.49,71.83,-47.89,258.68,318.22,1385.59,-16.83,-10.68,-1037.10,-18.77,-5.92,-996.38,1.97,-4.40,-6.05,1173,1170,1184,1177
13453,294,-30,15328,-5.05,103.22,-54.00,257.10,318.22,1385.59,-17.28,-10.41,-1037.16,-18.77,-5.92,-996.38,2.27,-0.99,-5.26,1174,1170,1181,1179
13459,148,-115,15516,-29.80,85.93,-28.20,257.10,318.22,1385.59,-16.94,-11.03,-1036.82,-18.77,-5.92,-996.38,-2.35,4.53,-2.70,1172,1176,1174,1181
13479,406,-154,15514,-16.76,79.54,-29.53,257.10,318.22,1385.59,-19.09,-12.33,-1036.79,-18.73,-5.90,-996.38,3.93,3.13,-4.80,1176,1170,1178,1183
13486,175,119,15695,-15.43,108.28,-31.39,257.10,318.22,1385.59,-18.44,-11.32,-1036.81,-18.73,-5.90,-996.38,-4.19,-5.76,-4.96,1170,1176,1185,1176
13493,174,-90,15675,-40.17,95.51,-12.24,257.10,318.22,1385.59,-17.97,-11.53,-1036.32,-18.73,-5.90,-996.38,-2.71,1.84,-2.07,1173,1177,1177,1180
13499,501,-198,14985,-11.71,102.95,-19.95,257.10,318.22,1385.59,-18.46,-11.93,-1036.31,-18.73,-5.90,-996.38,3.07,3.22,-4.70,1176,1171,1178,1183
13506,615,-65,16049,-20.75,83.00,-48.42,260.25,318.22,1383.64,-19.22,-11.96,-1036.51,-18.73,-5.90,-996.38,4.28,0.92,-5.91,1176,1169,1181,1182
13511,91,12,15140,-1.86,79.81,-60.92,260.25,318.22,1383.64,-18.23,-11.16,-1036.56,-18.73,-5.90,-996.38,-6.34,-4.46,-5.15,1168,1178,1184,1177
13533,373,-55,15479,-22.61,102.42,-36.71,260.25,318.22,1385.59,-19.89,-11.17,-1036.56,-18.69,-5.89,-996.38,3.13,0.65,-4.82,1176,1171,1180,1181
13540,-50,-164,15192,-18.36,68.37,-63.58,260.25,319.84,1385.59,-18.20,-11.69,-1036.76,-18.69,-5.89,-996.38,-9.31,3.55,-5.96,1165,1179,1179,1184
13546,963,-554,15790,-16.49,99.76,-41.50,260.25,319.84,1385.59,-18.64,-12.37,-1036.94,-18.69,-5.89,-996.38,2.79,5.07,-6.03,1174,1170,1178,1185
13552,-15,192,15484,-35.12,99.76,-14.37,260.25,319.84,1385.59,-17.29,-11.46,-1036.89,-18.69,-5.89,-996.38,-7.60,-4.35,-4.59,1167,1179,1184,1177
13558,-72,294,15195,-5.59,89.12,-21.28,260.25,319.84,1385.59,-16.22,-10.45,-1036.91,-18.69,-5.89,-996.38,-7.09,-5.84,-4.98,1168,1178,1185,1176
13565,446,-567,15680,-15.16,71.30,-46.56,260.25,318.22,1385.59,-16.50,-11.67,-1037.10,-18.69,-5.89,-996.38,1.28,7.40,-5.92,1173,1171,1176,1187
13587,342,159,15465,-22.08,86.46,-18.09,260.25,319.84,1387.54,-17.46,-9.13,-1036.94,-18.65,-5.88,-996.38,1.54,-4.08,-4.59,1192,1190,1201,1195
13593,452,-714,15457,1.86,82.47,-37.78,260.25,319.84,1387.54,-17.49,-10.18,-1037.07,-18.65,-5.88,-996.38,0.06,7.16,-5.71,1190,1190,1194,1205
13600,426,-569,15826,-29.26,79.28,-56.13,260.25,318.22,1385.59,-17.63,-11.54,-1037.32,-18.65,-5.88,-996.38,0.69,8.17,-6.29,1190,1189,1193,1206
13606,739,608,15536,-31.13,92.58,-35.65,260.25,318.22,1385.59,-17.87,-10.82,-1037.50,-18.65,-5.88,-996.38,1.38,-3.93,-6.02,1191,1189,1202,1196
13613,-4,228,15734,-32.72,103.49,-16.49,260.25,318.22,1385.59,-16.62,-9.86,-1037.44,-18.65,-5.88,-996.38,-7.19,-4.92,-4.59,1186,1197,1202,1194
13619,409,-70,14669,-0.53,92.05,-35.91,260.25,318.22,1385.59,-17.21,-9.93,-1037.47,-18.65,-5.88,-996.38,3.55,0.95,-5.14,1193,1188,1198,1199
13640,306,-212,15612,-19.69,86.99,-52.41,260.25,318.22,1385.59,-18.37,-12.78,-1037.71,-18.61,-5.86,-996.38,2.06,5.96,-5.39,1197,1194,1199,1208
13646,307,135,15154,-15.16,85.66,-29.80,260.25,318.22,1385.59,-18.49,-11.92,-1037.73,-18.61,-5.86,-996.38,0.74,-4.69,-5.09,1196,1195,1207,1200
13652,569,-29,15371,1.86,89.12,-57.46,260.25,319.84,1387.54,-19.19,-11.69,-1037.99,-18.61,-5.86,-996.38,3.97,-0.60,-6.43,1198,1192,1205,1204
13659,41,-589,15784,-19.95,73.16,-60.92,260.25,319.84,1387.54,-18.46,-12.94,-1038.23,-18.61,-5.86,-996.38,-4.63,8.76,-6.54,1191,1198,1198,1211
13666,300,-243,15362,-41.24,101.62,-21.02,264.98,318.22,1389.48,-18.71,-14.02,-1038.07,-18.61,-5.86,-996.38,1.39,6.97,-4.10,1197,1195,1197,1208
13672,-177,262,15374,-5.59,82.47,-6.92,264.98,318.22,1389.48,-17.46,-13.15,-1038.01,-18.61,-5.86,-996.38,-8.04,-4.67,-4.62,1190,1202,1207,1200
13693,518,-146,15636,-16.76,89.92,-28.73,264.98,318.22,1389.48,-19.68,-13.95,-1038.07,-18.57,-5.85,-996.38,4.02,2.37,-5.11,1203,1197,1206,1209
13700,-366,121,15195,-18.36,78.48,-6.92,264.98,318.22,1389.48,-18.13,-13.56,-1038.02,-18.57,-5.85,-996.38,-9.85,-1.53,-4.72,1192,1207,1208,1206
13706,875,317,16070,-21.81,70.50,-30.59,264.98,318.22,1389.48,-18.79,-13.05,-1038.16,-18.57,-5.85,-996.38,3.87,-2.12,-5.79,1202,1196,1210,1206
13712,338,154,14452,-1.60,76.35,-58.53,264.98,318.22,1389.48,-19.06,-12.16,-1038.35,-18.57,-5.85,-996.38,1.82,-4.85,-6.29,1200,1197,1212,1205
13719,520,-630,16319,-36.18,84.33,-44.96,268.14,318.22,1395.33,-19.26,-13.51,-1038.53,-18.57,-5.85,-996.38,1.19,8.39,-6.01,1200,1198,1202,1215
13725,-103,-346,14983,-14.90,105.08,-20.22,268.14,318.22,1395.33,-17.83,-14.42,-1038.46,-18.57,-5.85,-996.38,-9.20,6.79,-4.62,1193,1207,1202,1212
13746,442,77,15592,-18.89,74.49,-46.56,269.72,321.46,1397.27,-19.74,-12.70,-1038.88,-18.53,-5.84,-996.38,3.60,-2.28,-5.87,1212,1206,1220,1216
13752,-221,-649,15090,-13.30,107.74,-19.69,269.72,321.46,1397.27,-18.45,-13.77,-1038.89,-18.53,-5.84,-996.38,-8.23,7.72,-5.17,1203,1216,1211,1223
13759,135,219,15486,-19.69,71.30,-26.87,271.29,321.46,1399.22,-18.02,-12.60,-1038.87,-18.53,-5.84,-996.38,-2.43,-5.72,-4.96,1208,1211,1222,1213
13765,815,65,15738,-24.47,95.77,-54.00,271.29,321.46,1399.22,-18.62,-12.50,-1039.10,-18.53,-5.84,-996.38,3.74,0.13,-6.61,1211,1205,1218,1219
13771,1016,-473,15326,-13.83,70.76,-41.50,272.87,319.84,1403.12,-19.37,-13.12,-1039.29,-18.53,-5.84,-996.38,4.34,4.40,-6.23,1212,1205,1215,1222
13777,-126,60,15589,-9.84,104.55,-11.97,272.87,319.84,1403.12,-17.76,-12.60,-1039.15,-18.53,-5.84,-996.38,-10.27,-2.52,-4.21,1202,1218,1219,1215
13785,-364,-81,15634,-8.78,88.32,-18.62,272.87,321.46,1405.06,-15.81,-12.66,-1039.10,-18.53,-5.84,-996.38,-11.11,1.16,-4.85,1201,1218,1216,1218
13805,606,-116,15402,-23.94,86.73,-30.33,272.87,323.08,1405.06,-18.11,-13.46,-1039.26,-18.49,-5.83,-996.38,4.10,2.37,-5.43,1214,1208,1218,1221
13811,-426,523,15391,-18.62,92.05,-35.91,272.87,323.08,1405.06,-16.78,-12.67,-1039.41,-18.49,-5.83,-996.38,-8.63,-4.21,-6.12,1204,1217,1223,1217
13818,618,-528,15620,-32.46,63.32,-61.19,274.45,323.08,1405.06,-17.39,-13.75,-1039.69,-18.49,-5.83,-996.38,3.24,6.95,-6.76,1213,1208,1215,1226
13825,1012,-606,15552,-27.40,93.11,-42.83,274.45,323.08,1405.06,-17.88,-14.49,-1039.87,-18.49,-5.83,-996.38,3.01,5.71,-6.37,1213,1208,1216,1225
13831,-424,456,15417,9.05,93.38,-18.89,274.45,321.46,1405.06,-16.31,-13.42,-1039.92,-18.49,-5.83,-996.38,-8.93,-4.98,-5.46,1204,1218,1223,1216
13837,339,300,15268,-23.14,85.93,-42.03,274.45,321.46,1405.06,-16.48,-12.61,-1040.02,-18.49,-5.83,-996.38,0.87,-4.35,-5.92,1212,1210,1223,1217
13858,370,-242,15662,-18.09,87.52,-36.71,277.60,323.08,1405.06,-18.14,-14.96,-1039.97,-18.45,-5.81,-996.38,2.96,5.35,-5.14,1215,1210,1216,1224
13864,459,16,14396,-6.65,80.61,-45.76,277.60,323.08,1405.06,-18.77,-14.63,-1040.08,-18.45,-5.81,-996.38,4.00,-1.00,-5.90,1215,1209,1222,1220
13871,-91,34,16824,-25.27,80.87,-53.21,277.60,323.08,1408.96,-17.18,-14.06,-1040.12,-18.45,-5.81,-996.38,-8.90,-2.19,-5.48,1205,1219,1222,1219
13877,1711,-207,13991,-36.98,90.19,-16.76,277.60,323.08,1408.96,-17.84,-14.37,-1040.18,-18.45,-5.81,-996.38,4.07,2.99,-5.64,1215,1209,1218,1223
13884,-640,-110,16714,-5.05,91.78,-23.14,282.33,323.08,1410.91,-15.88,-14.43,-1040.20,-18.45,-5.81,-996.38,-11.30,1.36,-5.36,1204,1221,1219,1222
13890,785,-106,13329,-14.90,79.81,-54.54,282.33,323.08,1410.91,-16.60,-14.57,-1040.43,-18.45,-5.81,-996.38,4.30,1.93,-6.73,1215,1208,1220,1223
13912,285,22,15956,-21.02,88.06,-32.19,282.33,323.08,1414.80,-18.28,-13.29,-1039.99,-18.42,-5.80,-996.38,2.95,-1.36,-4.46,1222,1218,1228,1226
13918,404,-437,15629,-14.37,83.00,-56.66,282.33,323.08,1414.80,-18.59,-14.34,-1040.15,-18.42,-5.80,-996.38,1.79,7.08,-6.22,1220,1217,1223,1234
13924,917,-597,14789,-23.14,57.20,-27.67,282.33,323.08,1414.80,-19.26,-15.10,-1040.23,-18.42,-5.80,-996.38,4.37,5.92,-5.74,1222,1216,1223,1232
13931,-174,465,16297,-20.22,109.07,-2.93,282.33,323.08,1414.80,-17.92,-14.03,-1040.13,-18.42,-5.80,-996.38,-7.53,-4.98,-4.70,1214,1226,1231,1223
13936,-233,41,13661,-3.72,65.18,-37.78,282.33,323.08,1414.80,-16.45,-13.63,-1040.14,-18.42,-5.80,-996.38,-9.55,-1.56,-5.29,1212,1227,1229,1226
13943,939,-322,16934,-42.03,55.87,-57.73,282.33,323.08,1414.80,-17.36,-14.26,-1040.40,-18.42,-5.80,-996.38,5.04,4.57,-6.79,1222,1214,1225,1232
13964,311,88,15151,-18.89,86.99,-39.37,282.33,324.70,1416.75,-18.74,-12.38,-1040.36,-18.38,-5.79,-996.38,2.60,-2.69,-5.19,1225,1221,1233,1229
13970,737,-806,15934,-6.92,97.10,-48.15,282.33,324.70,1416.75,-18.94,-13.32,-1040.55,-18.38,-5.79,-996.38,1.33,6.84,-6.50,1223,1221,1227,1238
13977,346,-207,16016,-18.62,79.54,-24.21,282.33,323.08,1416.75,-19.53,-14.04,-1040.37,-18.38,-5.79,-996.38,3.38,4.96,-4.31,1227,1221,1227,1234
13983,344,431,13847,-5.59,115.46,-43.10,282.33,323.08,1416.75,-19.35,-12.99,-1040.53,-18.38,-5.79,-996.38,-0.98,-5.72,-6.30,1222,1223,1237,1228
13989,249,94,17821,-21.81,51.88,-54.27,282.33,321.46,1416.75,-19.74,-12.20,-1040.47,-18.38,-5.79,-996.38,2.36,-3.70,-4.94,1225,1222,1234,1228
13996,705,-251,13429,-30.86,103.75,-26.87,282.33,321.46,1416.75,-20.24,-12.75,-1040.51,-18.38,-5.79,-996.38,3.43,4.35,-5.59,1226,1220,1228,1235
14016,142,23,15128,-17.82,86.99,-29.00,282.33,323.08,1416.75,-19.20,-10.34,-1039.12,-18.34,-5.77,-996.38,-1.79,-3.83,-2.60,1224,1227,1232,1226
14022,480,-816,18281,-16.49,69.97,-21.28,282.33,323.08,1416.75,-19.29,-11.51,-1039.11,-18.34,-5.77,-996.38,0.65,8.10,-5.09,1224,1223,1225,1237
14029,1099,28,13814,-7.71,140.73,-26.60,282.33,323.08,1418.70,-19.69,-11.46,-1039.22,-18.34,-5.77,-996.38,2.37,0.45,-5.75,1225,1221,1231,1232
14035,-471,302,16973,-31.66,62.78,-37.51,282.33,323.08,1418.70,-18.29,-11.04,-1039.33,-18.34,-5.77,-996.38,-8.82,-2.06,-5.83,1216,1230,1233,1230
14043,398,248,14798,-14.10,115.46,-22.88,283.91,321.46,1418.70,-18.53,-10.29,-1039.28,-18.34,-5.77,-996.38,1.36,-3.64,-4.88,1225,1222,1234,1228
14048,-110,-500,15716,-27.40,81.41,-28.73,283.91,321.46,1418.70,-17.63,-11.55,-1039.26,-18.34,-5.77,-996.38,-5.79,8.68,-5.02,1219,1228,1224,1238
14069,343,-75,15590,-13.83,72.09,-39.90,282.33,321.46,1418.70,-20.02,-12.35,-1039.05,-18.30,-5.76,-996.38,4.52,2.23,-4.73,1227,1220,1229,1233
14075,896,-369,15295,-4.26,91.52,-46.56,282.33,321.46,1418.70,-20.58,-12.81,-1039.23,-18.30,-5.76,-996.38,3.82,3.74,-6.28,1225,1220,1229,1235
14083,-157,235,14667,-39.37,53.74,-38.31,285.49,323.08,1418.70,-19.32,-12.08,-1039.28,-18.30,-5.76,-996.38,-6.88,-3.26,-5.48,1218,1228,1234,1229
14088,82,-116,16479,11.44,120.51,-38.04,285.49,323.08,1418.70,-18.47,-12.61,-1038.77,-18.30,-5.76,-996.38,-5.40,4.21,-1.80,1222,1230,1225,1232
14095,232,-315,13993,-42.30,71.83,-41.50,285.49,321.46,1418.70,-18.67,-14.01,-1038.75,-18.30,-5.76,-996.38,1.16,8.73,-4.97,1224,1223,1224,1238
14101,13,182,16147,2.13,102.69,-56.13,285.49,321.46,1418.70,-17.76,-12.91,-1038.79,-18.30,-5.76,-996.38,-5.79,-6.11,-5.34,1219,1228,1236,1227
14123,411,-149,15699,-24.21,104.28,-44.16,285.49,323.08,1418.70,-19.51,-14.46,-1038.85,-18.26,-5.75,-996.38,3.23,3.78,-5.21,1229,1224,1231,1237
14130,568,-138,15628,-37.78,63.05,-26.07,285.49,323.08,1418.70,-20.40,-14.84,-1038.82,-18.26,-5.75,-996.38,5.23,3.24,-4.94,1230,1222,1232,1237
14136,366,284,13936,-7.18,75.02,-30.86,285.49,323.08,1418.70,-20.62,-13.92,-1038.87,-18.26,-5.75,-996.38,1.66,-4.92,-5.40,1227,1225,1238,1231
14142,628,-771,17056,-19.42,72.63,-42.83,285.49,326.32,1418.70,-20.92,-15.13,-1039.02,-18.26,-5.75,-996.38,1.98,7.92,-5.97,1227,1224,1229,1241
14148,517,-196,14139,-25.27,79.54,-22.08,285.49,326.32,1418.70,-21.57,-15.55,-1038.98,-18.26,-5.75,-996.38,4.55,3.83,-4.83,1230,1223,1231,1237
14155,-196,722,15610,-5.05,83.80,-11.44,287.07,326.32,1418.70,-20.48,-14.32,-1038.99,-18.26,-5.75,-996.38,-5.78,-5.79,-5.18,1222,1231,1239,1230
14161,829,-477,16060,-22.61,129.82,-35.38,287.07,326.32,1418.70,-20.74,-15.02,-1039.09,-18.26,-5.75,-996.38,1.99,5.53,-5.77,1227,1224,1230,1239
14182,456,-142,15477,-14.90,89.39,-35.38,287.07,326.32,1418.70,-22.84,-15.75,-1039.01,-18.22,-5.73,-996.38,4.34,2.54,-4.96,1235,1228,1237,1241
14188,-377,-1,15425,-20.48,38.04,-45.49,287.07,326.32,1418.70,-21.46,-15.61,-1039.15,-18.22,-5.73,-996.38,-8.35,0.26,-6.06,1224,1237,1240,1240
14195,-59,297,13855,-24.21,111.47,-37.78,287.07,326.32,1418.70,-20.13,-14.55,-1039.27,-18.22,-5.73,-996.38,-7.16,-4.81,-5.77,1225,1236,1243,1236
14201,1626,-1006,18999,-13.57,98.17,-34.58,287.07,326.32,1418.70,-20.57,-15.24,-1039.41,-18.22,-5.73,-996.38,3.06,5.52,-6.07,1233,1228,1236,1244
14208,-795,296,11731,-50.55,64.91,-59.59,287.07,326.32,1418.70,-18.89,-15.04,-1039.76,-18.22,-5.73,-996.38,-9.33,0.03,-7.15,1223,1237,1241,1241
14214,1400,-959,18828,4.26,136.47,-35.12,287.07,326.32,1418.70,-19.07,-15.66,-1039.90,-18.22,-5.73,-996.38,1.27,5.13,-6.11,1231,1230,1236,1244
14235,148,127,15086,-18.36,92.31,-40.44,287.07,323.08,1418.70,-18.13,-12.26,-1039.65,-18.18,-5.72,-996.38,-1.69,-5.32,-4.75,1232,1235,1245,1237
14241,631,-120,16592,-32.99,-1.33,-26.07,287.07,323.08,1418.70,-19.30,-12.61,-1039.62,-18.18,-5.72,-996.38,7.57,3.04,-5.04,1239,1227,1239,1243
14247,-1348,1356,12242,6.12,150.31,-57.73,287.07,321.46,1418.70,-17.32,-11.60,-1040.00,-18.18,-5.72,-996.38,-11.19,-4.91,-7.36,1223,1240,1247,1239
14254,1899,-2357,19814,-47.09,-2.39,-44.96,287.07,321.46,1418.70,-18.08,-12.82,-1040.21,-18.18,-5.72,-996.38,4.82,8.55,-6.59,1236,1228,1236,1249
14261,-34,288,12213,-48.15,85.13,-24.47,287.07,321.46,1418.70,-17.18,-11.85,-1040.16,-18.18,-5.72,-996.38,-5.08,-4.64,-4.94,1229,1237,1245,1237
14267,858,65,18041,36.18,102.95,-36.98,287.07,321.46,1418.70,-17.75,-11.48,-1040.25,-18.18,-5.72,-996.38,3.50,-1.60,-5.84,1235,1230,1243,1240
14287,342,-121,15508,-22.35,96.30,-25.54,287.07,321.46,1418.70,-19.49,-13.19,-1039.73,-18.14,-5.71,-996.38,3.31,3.98,-4.26,1240,1235,1241,1247
14294,-1647,480,13707,-38.84,78.21,-33.79,287.07,321.46,1418.70,-17.87,-13.06,-1039.90,-18.14,-5.71,-996.38,-10.24,0.09,-6.30,1228,1244,1246,1246
14301,1325,62,15273,1.06,97.37,-19.15,287.07,321.46,1420.64,-18.57,-12.93,-1039.96,-18.14,-5.71,-996.38,3.90,0.14,-5.54,1240,1234,1245,1246
14307,1109,-661,16266,-53.74,17.82,-29.26,287.07,321.46,1420.64,-19.49,-13.85,-1040.04,-18.14,-5.71,-996.38,6.02,6.81,-5.76,1241,1232,1240,1251
14313,-572,549,14310,9.84,102.69,-52.94,287.07,319.84,1420.64,-17.80,-12.84,-1040.32,-18.14,-5.71,-996.38,-9.43,-4.75,-6.83,1229,1243,1250,1243
14319,1720,-1489,17510,-25.01,80.08,-41.50,287.07,319.84,1420.64,-18.23,-13.76,-1040.51,-18.14,-5.71,-996.38,2.73,6.84,-6.50,1238,1234,1241,1251
14341,254,91,15066,-10.64,88.85,-49.22,291.80,321.46,1430.38,-19.60,-11.67,-1040.33,-18.10,-5.70,-996.38,2.59,-2.94,-4.96,1241,1237,1249,1245
14348,344,119,18366,-81.14,40.17,-39.90,291.80,321.46,1432.33,-20.42,-11.60,-1040.20,-18.10,-5.70,-996.38,4.86,0.31,-4.53,1243,1236,1246,1247
14354,-684,958,10614,41.77,147.91,-52.67,291.80,321.46,1432.33,-18.81,-10.39,-1040.49,-18.10,-5.70,-996.38,-10.12,-7.10,-7.13,1230,1245,1254,1243
14361,1659,-2164,19526,-29.26,84.07,-24.74,291.80,321.46,1434.27,-19.05,-11.70,-1040.59,-18.10,-5.70,-996.38,1.42,7.92,-5.85,1240,1238,1242,1254
14366,316,986,13625,-85.40,47.09,-25.54,291.80,321.46,1434.27,-19.07,-11.05,-1040.68,-18.10,-5.70,-996.38,0.26,-3.46,-5.90,1239,1238,1250,1245
14373,-487,884,12662,66.51,146.85,-43.10,291.80,321.46,1434.27,-17.37,-9.43,-1040.92,-18.10,-5.70,-996.38,-9.55,-8.61,-6.65,1231,1245,1255,1242
14395,298,-38,15607,-26.07,86.19,-30.06,291.80,321.46,1436.22,-19.38,-10.83,-1040.31,-18.06,-5.68,-996.38,3.80,3.16,-4.17,1245,1239,1246,1251
14400,1767,-1612,21155,-41.77,19.69,-6.12,291.80,321.46,1436.22,-20.13,-11.90,-1040.27,-18.06,-5.68,-996.38,4.98,7.56,-5.02,1245,1237,1243,1255
14407,-638,491,12638,-67.84,104.55,-28.47,293.38,324.70,1436.22,-18.34,-11.57,-1040.38,-18.06,-5.68,-996.38,-10.04,-1.20,-5.92,1233,1248,1251,1249
14413,-403,451,16065,75.55,104.82,-54.80,293.38,324.70,1436.22,-16.90,-10.25,-1040.57,-18.06,-5.68,-996.38,-9.30,-7.77,-6.50,1233,1247,1256,1244
14419,1561,-990,15937,-62.25,48.95,-18.89,296.53,324.70,1434.27,-17.69,-11.40,-1040.62,-18.06,-5.68,-996.38,4.46,7.16,-5.57,1244,1237,1244,1255
14426,-174,796,13195,-39.11,140.20,-45.23,296.53,324.70,1434.27,-16.58,-10.47,-1040.80,-18.06,-5.68,-996.38,-7.26,-5.32,-6.51,1235,1246,1254,1246
14447,327,-301,15319,-22.08,81.94,-54.80,296.53,324.70,1434.27,-17.84,-13.84,-1041.09,-18.03,-5.67,-996.38,2.20,6.90,-5.87,1242,1239,1244,1255
14453,787,80,18548,0.53,64.91,-68.64,296.53,324.70,1434.27,-18.62,-13.62,-1041.35,-18.03,-5.67,-996.38,5.00,-0.46,-7.00,1244,1236,1251,1250
14460,-29,6,14636,-9.31,70.76,-23.41,296.53,324.70,1434.27,-17.44,-13.18,-1040.69,-18.03,-5.67,-996.38,-6.88,-1.59,-1.54,1239,1249,1248,1245
14467,-243,-417,14287,-24.74,98.96,-40.17,296.53,324.70,1434.27,-16.18,-14.30,-1040.71,-18.03,-5.67,-996.38,-8.16,8.07,-5.45,1235,1247,1243,1256
14473,1859,-457,18982,-18.09,44.43,-52.41,298.11,324.70,1434.27,-17.20,-14.70,-1040.98,-18.03,-5.67,-996.38,5.65,3.33,-6.88,1244,1235,1248,1253
14479,-1430,559,9704,-25.81,97.90,-18.89,298.11,324.70,1434.27,-15.52,-14.39,-1041.07,-18.03,-5.67,-996.38,-11.03,-0.88,-5.90,1232,1249,1250,1249
14499,468,-79,15772,-21.02,75.29,-23.14,298.11,326.32,1434.27,-18.01,-15.09,-1040.75,-17.99,-5.66,-996.38,4.52,2.38,-4.75,1248,1241,1250,1254
14505,1687,-761,17455,4.52,121.84,-24.47,298.11,326.32,1434.27,-18.39,-15.51,-1040.83,-17.99,-5.66,-996.38,2.43,3.90,-5.85,1245,1242,1250,1256
14513,618,-83,18227,-18.09,40.70,-58.00,298.11,324.70,1434.27,-19.45,-15.62,-1040.99,-17.99,-5.66,-996.38,6.06,1.76,-6.21,1248,1239,1251,1254
14519,-460,1350,7666,-35.12,119.71,-23.14,298.11,324.70,1434.27,-18.33,-14.69,-1041.12,-17.99,-5.66,-996.38,-7.02,-4.77,-6.23,1238,1249,1257,1249
14526,834,-1521,19749,9.05,101.09,-34.85,298.11,324.70,1434.27,-18.30,-15.82,-1041.25,-17.99,-5.66,-996.38,-0.17,7.50,-6.11,1243,1244,1247,1259
14531,463,191,17577,-41.24,51.08,-71.30,298.11,324.70,1434.27,-18.96,-15.41,-1041.46,-17.99,-5.66,-996.38,4.32,-1.45,-6.73,1246,1240,1254,1252
14538,250,1455,9158,-34.32,156.16,-34.58,299.68,324.70,1434.27,-18.10,-14.29,-1041.69,-17.99,-5.66,-996.38,-4.78,-5.20,-6.71,1239,1247,1257,1249
14560,497,-511,16464,-22.88,100.03,-31.66,301.26,324.70,1434.27,-18.96,-17.66,-1041.69,-17.95,-5.64,-996.38,1.67,7.51,-5.45,1249,1247,1250,1262
14565,-59,-26,15320,42.57,43.10,-35.91,301.26,324.70,1434.27,-17.95,-16.84,-1041.28,-17.95,-5.64,-996.38,-6.37,-3.85,-2.82,1245,1255,1257,1251
14572,-784,274,19718,-18.09,97.90,-52.67,302.84,323.08,1434.27,-16.08,-16.38,-1041.48,-17.95,-5.64,-996.38,-10.71,-1.25,-6.48,1239,1255,1258,1256
14578,2152,50,7992,-83.27,85.40,-5.59,302.84,323.08,1434.27,-16.76,-16.83,-1041.49,-17.95,-5.64,-996.38,4.21,4.22,-5.49,1251,1245,1253,1259
14584,-364,-1878,17326,53.21,35.65,-39.11,302.84,323.08,1434.27,-16.26,-17.79,-1041.65,-17.95,-5.64,-996.38,-3.00,6.84,-6.35,1245,1249,1252,1262
14590,-305,1815,16847,-50.28,112.00,-49.22,302.84,323.08,1434.27,-15.43,-16.90,-1041.91,-17.95,-5.64,-996.38,-5.65,-4.27,-7.10,1242,1251,1261,1254
14612,312,-189,15837,-11.71,91.25,-21.02,302.84,323.08,1434.27,-17.30,-18.39,-1041.21,-17.91,-5.63,-996.38,3.32,4.22,-4.12,1258,1253,1259,1265
14618,789,-438,10483,-67.31,37.24,-0.53,302.84,323.08,1434.27,-18.15,-19.29,-1041.12,-17.91,-5.63,-996.38,5.46,7.39,-4.78,1259,1251,1257,1268
14624,748,-585,17311,42.57,120.51,-34.58,304.42,326.32,1440.12,-18.48,-19.70,-1041.19,-17.91,-5.63,-996.38,1.89,3.99,-5.77,1256,1253,1260,1266
14630,-387,1619,17857,-52.94,163.88,-58.79,304.42,326.32,1440.12,-17.22,-18.85,-1041.51,-17.91,-5.63,-996.38,-8.05,-3.82,-7.46,1247,1259,1268,1262
14638,260,-904,12696,-31.13,31.66,-36.45,304.42,324.70,1442.06,-17.41,-20.34,-1041.61,-17.91,-5.63,-996.38,1.02,10.12,-6.00,1255,1254,1256,1271
14644,2148,-861,15874,5.85,67.84,-76.09,304.42,324.70,1442.06,-18.14,-20.67,-1042.01,-17.91,-5.63,-996.38,4.70,3.95,-8.04,1256,1249,1262,1268
14664,84,329,15313,-3.46,81.67,-70.50,301.26,321.46,1442.06,-16.85,-16.55,-1042.85,-17.87,-5.62,-996.38,-2.41,-6.00,-7.05,1252,1255,1269,1260
14670,1589,-960,17696,-117.85,144.46,-43.90,301.26,321.46,1442.06,-17.04,-17.83,-1043.04,-17.87,-5.62,-996.38,1.08,9.56,-6.83,1255,1253,1257,1272
14678,-1345,-448,14358,5.05,69.17,-11.17,301.26,321.46,1444.01,-15.28,-18.13,-1043.03,-17.87,-5.62,-996.38,-10.26,3.25,-5.55,1247,1263,1261,1266
14684,1323,255,13803,32.19,123.17,-42.03,301.26,321.46,1444.01,-15.71,-17.65,-1043.22,-17.87,-5.62,-996.38,2.44,-1.65,-6.84,1256,1252,1265,1263
14690,1485,-460,17784,-102.95,133.02,-5.05,301.26,321.46,1445.96,-16.12,-18.66,-1043.17,-17.87,-5.62,-996.38,2.10,7.21,-5.31,1256,1253,1257,1269
14696,-2487,49,14136,22.61,48.42,5.59,301.26,321.46,1445.96,-14.63,-18.45,-1043.10,-17.87,-5.62,-996.38,-9.81,0.23,-5.16,1247,1263,1263,1263
14716,702,-37,15650,-31.92,69.43,-13.30,301.26,321.46,1445.96,-17.23,-18.75,-1042.85,-17.83,-5.61,-996.38,4.78,2.14,-5.11,1261,1253,1263,1267
14723,-680,11,15601,113.06,37.78,-51.08,301.26,321.46,1445.96,-15.85,-17.86,-1043.00,-17.83,-5.61,-996.38,-9.03,-4.22,-6.55,1249,1263,1269,1263
14730,1345,-456,15375,-103.75,107.48,-13.04,301.26,321.46,1447.91,-16.43,-18.91,-1043.00,-17.83,-5.61,-996.38,3.07,7.47,-5.60,1259,1254,1259,1271
14735,592,650,15287,-32.72,108.54,-32.99,301.26,321.46,1447.91,-16.51,-18.16,-1043.11,-17.83,-5.61,-996.38,0.40,-3.22,-6.29,1256,1256,1268,1263
14742,-753,162,16198,89.12,105.35,-74.22,301.26,324.70,1449.85,-14.58,-17.11,-1043.46,-17.83,-5.61,-996.38,-11.42,-4.63,-7.65,1246,1264,1270,1263
14748,1182,-912,13558,-139.14,149.78,-32.72,301.26,324.70,1449.85,-14.67,-18.61,-1043.59,-17.83,-5.61,-996.38,0.19,11.13,-6.49,1256,1256,1257,1274
14770,2,65,16468,-2.13,102.16,-50.55,301.26,324.70,1451.80,-13.27,-15.10,-1042.72,-17.79,-5.59,-996.38,-3.01,-5.05,-4.03,1265,1270,1278,1270
14776,274,-363,14701,-32.46,63.58,-71.03,301.26,324.70,1453.75,-13.80,-16.22,-1042.92,-17.79,-5.59,-996.38,2.51,7.54,-6.71,1268,1264,1270,1282
14782,3378,-136,11259,-61.72,76.35,-42.83,301.26,324.70,1453.75,-14.55,-16.63,-1043.16,-17.79,-5.59,-996.38,4.33,3.86,-7.11,1269,1262,1273,1279
14789,-2316,134,20778,29.26,46.82,-13.83,301.26,324.70,1455.70,-12.91,-16.29,-1043.18,-17.79,-5.59,-996.38,-9.90,-0.61,-5.73,1259,1274,1276,1275
14795,-311,320,12540,-17.03,96.04,-49.22,301.26,324.70,1455.70,-11.69,-15.42,-1043.28,-17.79,-5.59,-996.38,-8.52,-4.38,-6.24,1259,1273,1279,1272
14801,2230,-439,13351,-70.76,72.63,-17.56,304.42,324.70,1455.70,-12.53,-16.13,-1043.34,-17.79,-5.59,-996.38,4.09,5.27,-6.02,1269,1263,1271,1280
14823,-571,-26,16636,0.53,89.12,-13.83,305.99,324.70,1455.70,-6.62,-15.92,-1042.63,-17.75,-5.58,-996.38,-12.03,0.86,-4.25,1259,1278,1274,1276
14829,3245,760,13000,-58.79,86.19,-21.02,305.99,324.70,1455.70,-7.27,-16.01,-1042.73,-17.75,-5.58,-996.38,2.89,1.82,-6.19,1269,1265,1275,1278
14835,1853,-2046,16035,-29.53,83.80,-58.79,307.57,327.94,1455.70,-7.68,-17.17,-1043.07,-17.75,-5.58,-996.38,1.07,7.80,-7.51,1267,1265,1272,1284
14841,-3606,835,17748,39.37,102.69,-11.71,307.57,327.94,1455.70,-5.91,-16.63,-1043.11,-17.75,-5.58,-996.38,-12.66,-2.09,-5.82,1258,1277,1278,1275
14849,945,1458,13593,-5.32,76.62,-56.66,310.73,327.94,1455.70,-6.24,-15.58,-1043.43,-17.75,-5.58,-996.38,0.43,-4.58,-7.42,1266,1266,1281,1274
14855,3603,-3017,13384,-118.12,68.64,-59.33,310.73,327.94,1455.70,-6.77,-17.04,-1043.75,-17.75,-5.58,-996.38,2.07,10.56,-7.76,1267,1264,1270,1286
14875,-717,322,15733,2.13,84.07,-54.27,310.73,334.41,1457.64,-1.68,-14.56,-1044.11,-17.71,-5.57,-996.38,-11.10,-3.38,-6.36,1265,1282,1286,1281
14881,2804,-305,16778,-59.33,126.37,-28.73,310.73,334.41,1457.64,-2.11,-15.04,-1044.23,-17.71,-5.57,-996.38,0.89,4.18,-6.54,1274,1273,1281,1287
14888,1299,-600,17758,9.58,72.36,-73.69,310.73,334.41,1457.64,-2.90,-15.45,-1044.62,-17.71,-5.57,-996.38,2.61,3.45,-7.95,1275,1271,1282,1288
14895,-3130,-68,11855,-12.50,104.02,-18.36,310.73,334.41,1457.64,-1.08,-15.55,-1044.70,-17.71,-5.57,-996.38,-13.53,1.87,-6.28,1264,1284,1282,1285
14901,2724,254,16030,-39.64,97.37,-22.88,313.88,334.41,1457.64,-1.77,-15.72,-1044.80,-17.71,-5.57,-996.38,1.97,2.15,-6.37,1275,1272,1282,1285
14907,778,13,18834,-2.93,104.02,-55.60,313.88,334.41,1457.64,-2.34,-15.73,-1044.97,-17.71,-5.57,-996.38,1.75,1.32,-6.90,1275,1272,1283,1285
14914,-2226,236,13615,-20.75,88.32,2.66,313.88,329.55,1459.59,-0.39,-15.72,-1044.87,-17.71,-5.57,-996.38,-12.97,1.15,-5.28,1265,1285,1282,1284
14935,1243,-87,15365,-15.70,90.19,-17.29,315.46,329.55,1459.59,-2.66,-16.35,-1044.88,-17.67,-5.55,-996.38,2.33,2.43,-5.83,1277,1273,1282,1286
14941,-408,20,15193,-46.02,73.42,-47.35,315.46,329.55,1459.59,-1.57,-16.53,-1044.19,-17.67,-5.55,-996.38,-8.80,2.50,-1.39,1272,1285,1279,1283
14948,-961,-1746,14417,-0.27,79.28,-20.48,315.46,329.55,1461.54,-0.57,-17.82,-1044.24,-17.67,-5.55,-996.38,-7.65,8.60,-6.01,1269,1281,1278,1291
14954,2117,2453,16457,38.57,106.15,-25.81,315.46,329.55,1461.54,-0.79,-16.75,-1044.35,-17.67,-5.55,-996.38,-0.63,-5.44,-6.47,1274,1275,1289,1281
14960,1502,-179,17943,-58.53,73.42,-59.59,317.03,329.55,1463.49,-1.65,-17.29,-1044.64,-17.67,-5.55,-996.38,2.86,4.38,-7.42,1276,1272,1282,1289
14966,-3211,-3325,12023,-67.84,78.75,-25.54,317.03,329.55,1463.49,-0.39,-18.60,-1044.77,-17.67,-5.55,-996.38,-10.06,9.85,-6.62,1267,1282,1277,1292
14988,840,1120,16274,-3.46,89.65,-48.95,317.03,329.55,1467.38,-1.61,-15.75,-1045.46,-17.64,-5.54,-996.38,0.24,-3.81,-7.11,1274,1274,1288,1282
14994,-490,-2106,12832,-74.49,97.10,-45.76,317.03,329.55,1467.38,-0.92,-17.38,-1045.68,-17.64,-5.54,-996.38,-6.37,11.80,-7.26,1269,1279,1276,1294
15001,-1328,-2283,14125,62.52,63.85,-39.11,318.61,329.55,1467.38,0.05,-18.20,-1045.87,-17.64,-5.54,-996.38,-7.54,6.10,-7.04,1269,1280,1280,1290
15007,3175,4508,16966,-23.94,132.48,-26.87,318.61,329.55,1467.38,0.09,-17.41,-1046.01,-17.64,-5.54,-996.38,-2.39,-3.59,-6.84,1273,1276,1288,1282
15013,1046,68,17301,-67.57,115.72,-36.45,318.61,329.55,1469.33,-0.48,-17.82,-1046.12,-17.64,-5.54,-996.38,1.11,3.74,-6.55,1276,1274,1282,1288
15020,-2967,-5015,13930,-14.10,75.02,-27.14,318.61,329.55,1469.33,0.51,-18.96,-1046.26,-17.64,-5.54,-996.38,-8.50,8.89,-6.87,1268,1281,1278,1292
15041,1307,1120,15360,-5.59,75.55,-44.43,318.61,329.55,1467.38,-1.40,-16.75,-1046.91,-17.60,-5.53,-996.38,1.51,-2.66,-7.24,1281,1279,1293,1289
15046,396,-3084,17788,-80.87,60.12,-44.16,318.61,329.55,1467.38,-1.34,-18.39,-1047.11,-17.60,-5.53,-996.38,-2.29,11.95,-7.38,1278,1282,1282,1301
15053,-2446,-871,12977,48.42,72.36,-32.19,318.61,329.55,1469.33,0.42,-18.57,-1047.26,-17.60,-5.53,-996.38,-11.93,2.56,-6.96,1271,1289,1289,1293
15059,3269,3192,12835,-47.35,87.26,-39.64,318.61,329.55,1469.33,0.03,-18.06,-1047.48,-17.60,-5.53,-996.38,0.29,-1.72,-7.49,1280,1280,1293,1290
15067,1538,-211,21729,-20.75,114.13,-34.32,320.19,329.55,1471.28,-0.53,-18.33,-1047.58,-17.60,-5.53,-996.38,1.16,3.09,-6.74,1281,1280,1288,1293
15072,-2941,-2833,13195,-6.38,104.02,-20.75,320.19,329.55,1471.28,0.91,-19.26,-1047.68,-17.60,-5.53,-996.38,-11.29,7.48,-6.75,1272,1289,1285,1297
15093,1034,564,15549,-23.41,89.39,-32.72,323.34,329.55,1471.28,-1.12,-18.21,-1047.97,-17.56,-5.51,-996.38,1.69,-0.36,-6.71,1281,1278,1290,1290
15099,745,-181,17387,-7.18,85.13,-28.20,323.34,329.55,1471.28,-1.80,-18.44,-1047.97,-17.56,-5.51,-996.38,2.32,3.00,-6.19,1282,1278,1287,1292
15107,-2223,-782,10879,1.06,97.63,-20.48,323.34,329.55,1471.28,0.10,-18.93,-1048.04,-17.56,-5.51,-996.38,-12.86,4.38,-6.64,1270,1289,1286,1293
15113,1568,-198,13563,-73.69,79.81,-36.18,323.34,329.55,1471.28,-0.62,-19.50,-1048.18,-17.56,-5.51,-996.38,2.50,5.24,-7.09,1281,1277,1286,1294
15119,566,196,18127,29.53,74.76,-15.96,324.92,329.55,1471.28,-1.43,-19.02,-1048.06,-17.56,-5.51,-996.38,2.56,-1.03,-5.52,1282,1278,1290,1288
15125,797,356,17001,-15.16,67.84,-12.50,324.92,329.55,1471.28,-2.16,-18.77,-1047.98,-17.56,-5.51,-996.38,2.79,-0.02,-5.68,1282,1278,1289,1289
15147,-41,-147,14981,-21.28,67.84,-19.69,323.34,329.55,1471.28,-4.22,-20.80,-1046.67,-17.52,-5.50,-996.38,2.12,5.49,-3.68,1283,1280,1283,1292
15153,1216,437,16835,43.90,94.71,-13.57,323.34,331.17,1471.28,-4.88,-20.07,-1046.64,-17.52,-5.50,-996.38,2.09,-2.26,-5.89,1282,1279,1291,1287
15159,732,-705,13260,-118.92,74.22,-20.75,323.34,331.17,1471.28,-5.42,-21.44,-1046.65,-17.52,-5.50,-996.38,2.00,10.66,-6.06,1282,1278,1281,1298
15166,-318,-504,14453,-63.85,113.86,-40.97,323.34,324.70,1473.22,-4.49,-23.20,-1046.53,-17.52,-5.50,-996.38,-6.70,11.74,-5.40,1275,1286,1280,1298
15172,-1461,-200,17761,97.37,147.12,-28.73,323.34,324.70,1473.22,-2.43,-22.71,-1046.55,-17.52,-5.50,-996.38,-14.86,-1.02,-6.10,1269,1291,1290,1289
15179,2719,1372,16784,35.65,95.51,-55.87,323.34,331.17,1473.22,-3.03,-21.88,-1046.88,-17.52,-5.50,-996.38,1.54,-2.65,-7.91,1280,1277,1293,1289
15201,361,-1050,14049,-65.18,74.22,-46.02,323.34,324.70,1473.22,-3.83,-26.81,-1047.40,-17.48,-5.49,-996.38,-0.22,11.30,-7.04,1286,1286,1288,1306
15206,-2484,1305,18812,111.20,106.41,-44.16,323.34,324.70,1473.22,-2.22,-25.45,-1047.60,-17.48,-5.49,-996.38,-12.02,-6.21,-7.41,1277,1295,1302,1293
15213,2743,1951,17742,-21.81,100.83,-48.68,324.92,331.17,1471.28,-2.68,-24.84,-1047.89,-17.48,-5.49,-996.38,0.75,-1.07,-7.78,1286,1285,1298,1297
15219,1412,-1114,12640,-112.53,86.99,-17.29,324.92,331.17,1471.28,-3.18,-26.13,-1047.93,-17.48,-5.49,-996.38,1.48,10.67,-6.43,1288,1286,1288,1305
15226,-1588,-842,11909,2.39,84.07,-22.61,329.65,327.94,1473.22,-1.41,-26.78,-1047.99,-17.48,-5.49,-996.38,-11.71,6.17,-6.52,1278,1296,1292,1301
15233,512,-481,18572,-6.65,112.00,-40.44,329.65,327.94,1473.22,-1.87,-27.20,-1048.02,-17.48,-5.49,-996.38,0.98,5.24,-6.42,1287,1286,1293,1301
15253,513,-48,15249,-16.23,96.04,-15.16,329.65,327.94,1473.22,-3.98,-27.10,-1047.65,-17.44,-5.48,-996.38,2.19,2.41,-5.48,1289,1286,1294,1298
15259,-896,-803,12430,3.46,31.39,-34.58,329.65,327.94,1473.22,-2.98,-27.94,-1047.70,-17.44,-5.48,-996.38,-8.05,8.04,-6.49,1280,1293,1290,1303
15266,877,557,16132,-52.41,27.67,-60.12,324.92,327.94,1475.17,-3.97,-27.59,-1047.97,-17.44,-5.48,-996.38,3.84,0.70,-7.69,1289,1283,1297,1298
15272,-1208,1003,21316,33.79,118.38,-37.78,324.92,327.94,1475.17,-2.62,-26.39,-1048.06,-17.44,-5.48,-996.38,-10.31,-5.11,-6.75,1278,1294,1301,1293
15279,2935,-773,14784,-43.10,67.84,-65.18,326.50,327.94,1475.17,-3.52,-26.95,-1048.46,-17.44,-5.48,-996.38,3.27,5.68,-8.45,1288,1283,1294,1302
15285,580,-1560,10990,-24.47,61.19,-50.55,326.50,327.94,1475.17,-3.74,-28.13,-1048.69,-17.44,-5.48,-996.38,-0.24,10.27,-7.74,1285,1286,1290,1305
15292,-1161,770,15163,26.07,92.85,-62.25,329.65,327.94,1477.12,-2.20,-26.94,-1048.97,-17.44,-5.48,-996.38,-10.37,-4.00,-7.89,1278,1294,1301,1295
15312,737,-14,15629,-41.50,123.17,-63.58,329.65,327.94,1477.12,-3.78,-27.34,-1049.77,-17.40,-5.46,-996.38,1.22,3.33,-7.86,1287,1285,1295,1300
15319,246,-568,17897,24.21,42.03,-43.36,329.65,327.94,1477.12,-4.51,-27.81,-1049.75,-17.40,-5.46,-996.38,3.12,5.71,-6.27,1289,1284,1292,1301
15326,-268,2378,11959,13.57,98.17,-36.18,331.23,327.94,1477.12,-3.86,-26.40,-1049.95,-17.40,-5.46,-996.38,-5.39,-5.60,-7.57,1282,1290,1302,1293
15331,264,-2311,15269,-124.77,96.30,-31.66,331.23,327.94,1477.12,-3.60,-28.29,-1050.07,-17.40,-5.46,-996.38,-3.31,14.79,-7.19,1284,1289,1286,1309
15338,-374,-2277,17865,-3.99,17.56,-12.24,329.65,327.94,1477.12,-3.48,-29.68,-1050.03,-17.40,-5.46,-996.38,-2.32,10.62,-6.24,1285,1289,1288,1305
15344,1348,2865,16951,63.85,1.86,-11.71,329.65,327.94,1477.12,-4.05,-28.25,-1050.05,-17.40,-5.46,-996.38,2.03,-6.33,-6.54,1288,1285,1302,1292
15366,383,-25,14599,-27.14,85.93,0.53,329.65,327.94,1479.07,-6.28,-28.02,-1049.23,-17.36,-5.45,-996.38,2.70,2.29,-4.86,1292,1288,1296,1299
15372,614,-2234,13289,-6.38,148.18,-20.48,328.08,327.94,1479.07,-5.79,-29.32,-1049.32,-17.36,-5.45,-996.38,-4.15,10.13,-6.82,1285,1292,1291,1307
15378,1856,1841,15908,-16.49,104.55,-19.69,328.08,327.94,1479.07,-6.03,-28.60,-1049.40,-17.36,-5.45,-996.38,0.18,-1.84,-6.87,1288,1288,1300,1297
15385,-516,1392,17322,-27.93,139.67,-39.90,328.08,331.17,1479.07,-4.90,-27.44,-1049.57,-17.36,-5.45,-996.38,-7.80,-3.80,-7.34,1282,1294,1302,1296
15391,-612,128,14869,-27.14,161.48,-51.34,328.08,331.17,1479.07,-3.07,-26.86,-1049.54,-17.36,-5.45,-996.38,-13.28,-1.12,-6.21,1279,1299,1299,1298
15397,2171,-2605,15381,-6.12,141.80,-53.21,328.08,331.17,1479.07,-3.09,-27.83,-1049.86,-17.36,-5.45,-996.38,-1.63,8.23,-8.23,1286,1289,1294,1306
15419,532,-145,15569,-26.07,119.45,-68.10,328.08,332.79,1479.07,-4.80,-28.26,-1050.65,-17.32,-5.44,-996.38,1.51,3.49,-7.90,1290,1287,1298,1303
15425,-2849,2810,16745,-20.22,139.93,-58.26,328.08,332.79,1479.07,-3.20,-27.46,-1050.98,-17.32,-5.44,-996.38,-11.84,-2.40,-8.62,1279,1297,1303,1299
15432,563,-228,16577,-3.72,108.28,-39.64,328.08,332.79,1479.07,-3.80,-27.57,-1051.03,-17.32,-5.44,-996.38,1.77,3.23,-6.84,1291,1288,1297,1302
15437,2576,-2824,13411,11.97,109.87,-52.41,328.08,332.79,1479.07,-4.03,-28.32,-1051.31,-17.32,-5.44,-996.38,-0.19,7.49,-8.41,1288,1288,1295,1307
15444,813,-352,13926,-93.38,46.29,-15.16,328.08,331.17,1479.07,-5.01,-29.15,-1051.26,-17.32,-5.44,-996.38,4.21,7.70,-6.28,1293,1287,1293,1305
15451,-3345,2796,17453,20.22,109.87,-23.68,328.08,331.17,1479.07,-3.51,-28.19,-1051.38,-17.32,-5.44,-996.38,-11.18,-3.41,-7.34,1280,1298,1303,1298
15471,984,-771,15754,-16.76,55.60,-13.30,328.08,332.79,1486.85,-6.15,-30.26,-1051.24,-17.28,-5.42,-996.38,3.44,6.73,-6.33,1298,1293,1300,1311
15477,683,-784,12752,-60.39,-29.00,10.11,328.08,332.79,1486.85,-7.31,-31.29,-1051.04,-17.28,-5.42,-996.38,6.16,9.61,-5.29,1301,1292,1297,1312
15484,-1837,1442,16361,28.47,38.04,-10.11,328.08,332.79,1492.70,-6.12,-30.10,-1051.04,-17.28,-5.42,-996.38,-7.96,-3.66,-6.55,1289,1302,1308,1303
15491,436,-115,17946,-42.57,78.21,-10.38,328.08,332.79,1492.70,-6.80,-30.13,-1050.86,-17.28,-5.42,-996.38,3.05,3.13,-5.41,1299,1294,1302,1307
15497,1770,223,14954,-20.22,76.88,9.58,328.08,332.79,1490.75,-7.61,-29.97,-1050.72,-17.28,-5.42,-996.38,3.31,2.09,-5.76,1299,1294,1303,1307
15503,795,-2055,11206,-14.10,76.35,-43.36,328.08,332.79,1490.75,-7.70,-31.12,-1050.93,-17.28,-5.42,-996.38,-0.57,10.37,-7.87,1294,1295,1299,1315
15524,526,-17,16363,-24.21,119.98,-43.63,331.23,332.79,1490.75,-9.15,-30.40,-1051.17,-17.25,-5.41,-996.38,1.65,1.70,-7.01,1297,1295,1306,1308
15529,504,1569,14760,10.11,98.96,-71.03,331.23,332.79,1490.75,-9.00,-29.23,-1051.54,-17.25,-5.41,-996.38,-1.92,-4.62,-8.97,1293,1296,1312,1305
15537,-88,-755,15075,-14.37,97.10,-98.43,332.81,329.55,1492.70,-8.65,-30.60,-1051.90,-17.25,-5.41,-996.38,-3.03,10.72,-8.65,1293,1297,1300,1316
15543,617,-730,13568,-52.41,83.80,-56.40,332.81,329.55,1492.70,-9.15,-31.57,-1052.09,-17.25,-5.41,-996.38,2.20,9.25,-7.91,1297,1294,1300,1315
15550,43,679,20088,36.45,100.56,-68.10,332.81,326.32,1492.70,-8.90,-30.06,-1052.35,-17.25,-5.41,-996.38,-2.42,-5.56,-8.15,1293,1297,1312,1303
15555,-702,-862,15767,-68.10,77.95,-44.43,332.81,326.32,1492.70,-7.74,-31.42,-1052.40,-17.25,-5.41,-996.38,-8.45,11.72,-7.07,1290,1303,1298,1316
15577,65,94,12689,-11.17,83.53,-21.81,332.81,329.55,1492.70,-8.70,-28.68,-1051.70,-17.21,-5.40,-996.38,0.71,-2.17,-5.38,1298,1297,1307,1304
15584,1206,-706,17226,-22.88,67.04,-38.04,335.96,329.55,1492.70,-9.52,-29.26,-1051.83,-17.21,-5.40,-996.38,3.72,6.17,-7.34,1299,1293,1302,1312
15589,1800,-807,21008,-63.32,-0.80,-23.41,335.96,329.55,1492.70,-10.68,-29.94,-1051.85,-17.21,-5.40,-996.38,6.60,7.24,-6.82,1301,1291,1301,1312
15596,-484,979,13775,-6.65,54.54,-26.60,337.54,337.65,1490.75,-9.95,-28.67,-1051.92,-17.21,-5.40,-996.38,-4.91,-4.26,-7.03,1292,1300,1310,1304
15602,-1905,61,8193,24.47,98.17,-58.79,337.54,337.65,1490.75,-8.18,-28.41,-1052.24,-17.21,-5.40,-996.38,-12.31,1.13,-8.72,1285,1304,1307,1309
15609,1312,-474,14856,-21.55,66.51,-27.93,337.54,337.65,1490.75,-9.07,-28.82,-1052.31,-17.21,-5.40,-996.38,3.95,5.06,-7.14,1299,1293,1303,1311
15631,972,478,16477,1.06,71.83,-56.93,337.54,331.17,1490.75,-11.30,-26.71,-1053.11,-17.17,-5.38,-996.38,3.24,-1.15,-8.21,1300,1295,1311,1309
15636,295,-1391,14371,-93.91,99.50,-57.73,337.54,331.17,1490.75,-11.14,-28.38,-1053.34,-17.17,-5.38,-996.38,-1.76,13.36,-8.27,1296,1298,1300,1320
15643,110,621,14478,6.65,82.20,-54.54,339.12,331.17,1490.75,-11.06,-27.07,-1053.51,-17.17,-5.38,-996.38,-1.17,-4.70,-7.85,1297,1298,1313,1306
15649,-438,-1267,17851,-15.43,109.61,-57.73,339.12,331.17,1490.75,-10.19,-28.32,-1053.68,-17.17,-5.38,-996.38,-6.32,10.68,-7.92,1293,1302,1301,1318
15656,1014,-669,17248,-64.38,86.46,-24.21,339.12,342.51,1490.75,-10.88,-29.24,-1053.69,-17.17,-5.38,-996.38,3.05,7.91,-6.93,1301,1296,1303,1315
15663,648,2187,15280,55.33,72.09,-35.12,339.12,342.51,1490.75,-10.85,-27.78,-1053.86,-17.17,-5.38,-996.38,-0.97,-6.60,-7.96,1297,1298,1315,1305
15683,20,-781,13692,-44.43,55.07,-5.32,339.12,331.17,1492.70,-10.94,-32.64,-1053.13,-17.13,-5.37,-996.38,-0.58,12.05,-5.50,1300,1301,1299,1318
15689,-520,-594,17814,-44.96,75.55,0.80,339.12,331.17,1492.70,-9.70,-33.68,-1052.70,-17.13,-5.37,-996.38,-8.77,10.07,-4.00,1295,1308,1300,1315
15696,1085,1684,18973,37.51,72.36,-10.11,340.69,331.17,1490.75,-9.97,-32.28,-1052.69,-17.13,-5.37,-996.38,0.64,-4.49,-6.71,1300,1299,1313,1306
15703,3590,669,13051,16.76,49.48,6.38,340.69,331.17,1490.75,-10.85,-31.91,-1052.63,-17.13,-5.37,-996.38,4.76,0.86,-6.33,1303,1296,1309,1310
15709,-1637,-1037,11380,-172.12,84.33,-35.65,340.69,342.51,1490.75,-9.14,-33.71,-1052.79,-17.13,-5.37,-996.38,-10.72,13.66,-7.73,1290,1307,1300,1321
15715,-1347,-1294,16034,-113.60,102.16,-21.81,340.69,342.51,1490.75,-7.60,-35.21,-1052.82,-17.13,-5.37,-996.38,-10.65,12.90,-6.94,1291,1307,1300,1320
15722,1450,992,18958,82.47,57.73,-51.61,340.69,339.27,1490.75,-8.29,-33.81,-1053.08,-17.13,-5.37,-996.38,2.80,-4.38,-8.25,1300,1296,1314,1307
15744,836,657,14408,25.01,108.54,-44.43,340.69,331.17,1490.75,-9.27,-30.48,-1053.70,-17.09,-5.36,-996.38,0.77,-2.83,-7.97,1300,1299,1314,1309
15751,1255,-2362,15959,-50.81,161.75,-17.03,342.27,327.94,1492.70,-8.95,-31.95,-1053.76,-17.09,-5.36,-996.38,-2.76,11.33,-7.19,1298,1302,1302,1320
15756,206,-1137,17165,-61.72,149.78,-27.67,342.27,327.94,1492.70,-8.62,-33.35,-1053.74,-17.09,-5.36,-996.38,-3.13,12.28,-6.76,1298,1303,1301,1320
15763,-369,-1283,15064,-62.25,151.11,9.58,343.85,327.94,1492.70,-7.41,-35.14,-1053.49,-17.09,-5.36,-996.38,-7.77,13.40,-5.51,1295,1307,1299,1320
15769,-1072,2802,15929,110.14,128.49,8.51,343.85,327.94,1492.70,-6.34,-33.31,-1053.41,-17.09,-5.36,-996.38,-8.05,-8.18,-6.34,1294,1307,1317,1304
15776,605,1362,16220,8.25,156.69,-2.39,345.43,336.03,1492.70,-5.94,-32.06,-1053.34,-17.09,-5.36,-996.38,-3.57,-3.70,-6.46,1298,1303,1313,1308
15797,1169,-1037,15429,-53.21,68.64,-0.80,345.43,336.03,1492.70,-8.15,-35.22,-1052.98,-17.05,-5.35,-996.38,2.92,9.30,-6.14,1303,1299,1303,1317
15803,-2400,-839,11790,-1.60,19.95,-36.98,345.43,336.03,1492.70,-6.88,-35.56,-1053.14,-17.05,-5.35,-996.38,-9.23,5.75,-7.82,1292,1307,1307,1316
15810,463,2208,19620,15.43,97.63,-15.16,345.43,336.03,1492.70,-6.63,-34.18,-1053.17,-17.05,-5.35,-996.38,-2.65,-4.35,-7.00,1298,1302,1314,1308
15816,1147,541,16818,3.46,87.79,-19.69,345.43,336.03,1492.70,-7.15,-33.57,-1053.19,-17.05,-5.35,-996.38,2.09,-0.46,-6.91,1302,1299,1311,1310
15822,435,554,13523,21.55,79.28,-51.34,345.43,336.03,1492.70,-7.50,-32.46,-1053.37,-17.05,-5.35,-996.38,0.86,-3.25,-7.90,1300,1299,1314,1309
15828,1183,-3770,12912,-99.50,26.34,-16.49,345.43,336.03,1492.70,-7.78,-34.17,-1053.42,-17.05,-5.35,-996.38,0.70,14.29,-7.17,1300,1299,1300,1322
15850,-110,42,15422,-36.18,98.70,-53.47,345.43,336.03,1492.70,-7.40,-31.42,-1052.83,-17.01,-5.33,-996.38,-1.82,-1.69,-5.75,1300,1302,1311,1309
15856,90,2225,17348,75.55,79.01,-49.22,345.43,336.03,1492.70,-7.13,-29.78,-1053.07,-17.01,-5.33,-996.38,-2.92,-7.43,-8.26,1297,1301,1318,1306
15862,1764,-307,13905,3.99,88.06,-27.40,340.69,336.03,1492.70,-7.88,-29.84,-1053.17,-17.01,-5.33,-996.38,3.15,3.29,-7.42,1302,1297,1309,1314
15868,2023,-1950,16803,-54.27,129.29,-43.63,340.69,336.03,1492.70,-8.07,-30.89,-1053.38,-17.01,-5.33,-996.38,0.12,9.69,-8.16,1299,1299,1304,1319
15876,326,-1120,16302,-37.78,105.61,-9.84,340.69,336.03,1492.70,-8.09,-32.23,-1053.26,-17.01,-5.33,-996.38,-0.95,10.93,-6.13,1300,1301,1302,1319
15882,-1604,177,16169,-4.26,27.40,-50.01,340.69,336.03,1492.70,-6.79,-31.89,-1053.43,-17.01,-5.33,-996.38,-9.41,1.06,-7.94,1292,1307,1311,1312
15902,133,1002,15059,3.99,87.26,-37.24,340.69,336.03,1494.64,-6.27,-27.82,-1053.81,-16.97,-5.32,-996.38,-2.23,-4.64,-7.57,1298,1301,1315,1308
15908,2540,-2098,14843,-51.08,74.76,-9.05,340.69,336.03,1494.64,-6.81,-28.81,-1053.82,-16.97,-5.32,-996.38,2.19,9.07,-6.94,1302,1298,1304,1318
15916,702,-183,15888,0.53,86.73,-54.27,340.69,336.03,1494.64,-7.55,-28.81,-1053.98,-16.97,-5.32,-996.38,3.13,2.82,-7.83,1302,1297,1309,1314
15921,-1284,-1339,16492,-50.28,95.51,0.00,340.69,336.03,1494.64,-6.18,-30.02,-1053.86,-16.97,-5.32,-996.38,-9.87,10.57,-6.13,1293,1308,1302,1318
15928,-1030,1519,11903,-7.71,116.52,-42.83,340.69,336.03,1494.64,-4.82,-28.86,-1054.08,-16.97,-5.32,-996.38,-9.14,-3.72,-8.22,1292,1306,1315,1309
15934,2513,1664,13221,-4.79,175.32,-43.63,340.69,336.03,1494.64,-4.79,-28.24,-1054.33,-16.97,-5.32,-996.38,-1.69,-1.19,-8.50,1298,1300,1313,1311
15955,372,-573,16146,-34.05,65.18,-26.34,345.43,336.03,1494.64,-7.04,-31.11,-1054.02,-16.93,-5.31,-996.38,2.77,8.15,-6.38,1303,1298,1304,1317
15962,-1683,-1369,17621,-39.11,101.09,-61.45,345.43,336.03,1494.64,-5.53,-32.11,-1054.28,-16.93,-5.31,-996.38,-10.92,9.54,-8.57,1290,1307,1305,1319
15968,521,381,11056,33.25,83.00,-22.88,345.43,336.03,1494.64,-6.04,-31.15,-1054.28,-16.93,-5.31,-996.38,1.69,-2.57,-6.96,1301,1299,1313,1309
15974,614,1463,13754,25.27,63.85,-27.40,345.43,336.03,1494.64,-6.23,-29.95,-1054.37,-16.93,-5.31,-996.38,-0.08,-4.67,-7.51,1300,1300,1315,1308
15981,1291,-512,16393,-71.83,71.03,-71.30,339.12,336.03,1496.59,-7.10,-30.70,-1054.73,-16.93,-5.31,-996.38,3.63,7.18,-9.01,1301,1296,1307,1318
15986,-750,-1913,16749,-91.52,116.79,-11.97,339.12,336.03,1496.59,-6.08,-32.40,-1054.70,-16.93,-5.31,-996.38,-7.72,14.01,-6.82,1294,1306,1300,1321
16008,633,231,14982,1.60,86.19,-64.11,339.12,336.03,1496.59,-8.03,-30.45,-1055.51,-16.89,-5.29,-996.38,2.43,-0.48,-8.55,1301,1297,1312,1312
16014,1316,-505,14566,-24.21,55.60,-60.66,339.12,336.03,1496.59,-8.88,-30.83,-1055.77,-16.89,-5.29,-996.38,4.42,5.44,-8.79,1302,1295,1308,1316
16020,-268,197,16691,-35.91,91.25,-31.92,339.12,336.03,1496.59,-8.22,-29.82,-1055.55,-16.89,-5.29,-996.38,-4.80,-2.81,-5.83,1297,1305,1312,1308
16026,706,789,20322,10.11,119.18,-67.84,339.12,336.03,1496.59,-8.35,-28.91,-1055.82,-16.89,-5.29,-996.38,-0.21,-2.95,-8.86,1298,1299,1315,1310
16033,484,-667,14887,-31.39,85.66,7.18,337.54,326.32,1496.59,-8.88,-29.89,-1055.56,-16.89,-5.29,-996.38,1.95,8.38,-5.62,1303,1300,1303,1316
16039,868,-970,10204,-4.52,31.13,-40.17,337.54,326.32,1496.59,-9.62,-30.67,-1055.70,-16.89,-5.29,-996.38,3.85,8.00,-8.05,1302,1296,1306,1318
16061,-109,196,15638,-11.44,60.39,8.78,339.12,324.70,1498.54,-9.55,-27.08,-1054.09,-16.86,-5.28,-996.38,-0.99,-3.73,-4.07,1302,1303,1311,1306
16067,623,-486,15574,-6.38,75.82,25.01,339.12,324.70,1498.54,-10.19,-27.55,-1053.75,-16.86,-5.28,-996.38,3.25,5.70,-4.72,1304,1299,1305,1313
16073,1180,419,16038,-2.93,56.66,-36.98,339.12,324.70,1498.54,-11.04,-27.08,-1053.87,-16.86,-5.28,-996.38,4.19,-0.12,-7.60,1303,1296,1311,1311
16079,-712,-224,13665,-29.53,99.76,29.00,339.12,324.70,1498.54,-9.28,-27.47,-1053.41,-16.86,-5.28,-996.38,-11.97,5.12,-3.96,1293,1312,1305,1312
16087,488,357,14325,-9.84,72.09,-31.66,340.69,324.70,1498.54,-9.91,-26.78,-1053.42,-16.86,-5.28,-996.38,2.67,-1.26,-6.90,1302,1298,1312,1310
